
time,ax,ay,az,wx,wy,wz,
0.0650,0.0000,0.0000,0.0000,0.0000,0.0000,0.0000,
0.0660,0.0000,0.0000,0.0000,0.0000,0.0000,0.0000,
0.0660,0.0000,0.0000,0.0000,0.0000,0.0000,0.0000,
0.0660,0.0000,0.0000,0.0000,0.0000,0.0000,0.0000,
0.0670,0.0000,0.0000,0.0000,0.0000,0.0000,0.0000,
0.0670,0.0000,0.0000,0.0000,0.0000,0.0000,0.0000,
0.0670,0.0000,0.0000,0.0000,0.0000,0.0000,0.0000,
0.0670,0.0000,0.0000,0.0000,0.0000,0.0000,0.0000,
0.0680,0.0000,0.0000,0.0000,0.0000,0.0000,0.0000,
0.0680,0.0000,0.0000,0.0000,0.0000,0.0000,0.0000,
0.0680,0.0000,0.0000,0.0000,0.0000,0.0000,0.0000,
0.0680,0.0000,0.0000,0.0000,0.0102,0.0117,0.0098,
0.1240,0.0000,0.0000,0.0000,0.0102,0.0117,0.0098,
0.1250,0.0000,0.0000,0.0000,0.0102,0.0117,0.0098,
0.1250,0.0000,0.0000,0.0000,0.0102,0.0117,0.0098,
0.1260,0.0000,0.0000,0.0000,0.0057,0.0271,0.0033,
0.1260,-0.0173,0.0045,-0.0029,0.0057,0.0271,0.0033,
0.1820,-0.0173,0.0045,-0.0029,0.0057,0.0271,0.0033,
0.1830,-0.0173,0.0045,-0.0029,0.0057,0.0271,0.0033,
0.1830,-0.0173,0.0045,-0.0029,0.0057,0.0271,0.0033,
0.1840,-0.0173,0.0045,-0.0029,0.0037,0.0255,0.0037,
0.1840,-0.0336,-0.0092,-0.0215,0.0037,0.0255,0.0037,
0.2410,-0.0336,-0.0092,-0.0215,0.0037,0.0255,0.0037,
0.2410,-0.0336,-0.0092,-0.0215,0.0037,0.0255,0.0037,
0.2420,-0.0336,-0.0092,-0.0215,0.0037,0.0255,0.0037,
0.2420,-0.0336,-0.0092,-0.0215,0.0061,0.0194,0.0037,
0.2440,-0.0277,-0.0074,-0.0176,0.0061,0.0194,0.0037,
0.2990,-0.0277,-0.0074,-0.0176,0.0061,0.0194,0.0037,
0.2990,-0.0277,-0.0074,-0.0176,0.0061,0.0194,0.0037,
0.3000,-0.0277,-0.0074,-0.0176,0.0061,0.0194,0.0037,
0.3000,-0.0277,-0.0074,-0.0176,0.0053,0.0068,0.0045,
0.3010,-0.0124,-0.0109,0.0173,0.0053,0.0068,0.0045,
0.3570,-0.0124,-0.0109,0.0173,0.0053,0.0068,0.0045,
0.3580,-0.0124,-0.0109,0.0173,0.0053,0.0068,0.0045,
0.3590,-0.0124,-0.0109,0.0173,0.0053,0.0068,0.0045,
0.3600,-0.0124,-0.0109,0.0173,0.0102,0.0056,0.0017,
0.3600,-0.0108,-0.0140,0.0056,0.0102,0.0056,0.0017,
0.4170,-0.0108,-0.0140,0.0056,0.0102,0.0056,0.0017,
0.4170,-0.0108,-0.0140,0.0056,0.0102,0.0056,0.0017,
0.4180,-0.0108,-0.0140,0.0056,0.0102,0.0056,0.0017,
0.4190,-0.0108,-0.0140,0.0056,0.0106,-0.0022,0.0017,
0.4190,0.0126,-0.0060,-0.0209,0.0106,-0.0022,0.0017,
0.4750,0.0126,-0.0060,-0.0209,0.0106,-0.0022,0.0017,
0.4760,0.0126,-0.0060,-0.0209,0.0106,-0.0022,0.0017,
0.4760,0.0126,-0.0060,-0.0209,0.0106,-0.0022,0.0017,
0.4770,0.0126,-0.0060,-0.0209,0.0041,-0.0014,-0.0020,
0.4780,0.0218,-0.0127,0.0102,0.0041,-0.0014,-0.0020,
0.5340,0.0218,-0.0127,0.0102,0.0041,-0.0014,-0.0020,
0.5350,0.0218,-0.0127,0.0102,0.0041,-0.0014,-0.0020,
0.5350,0.0218,-0.0127,0.0102,0.0041,-0.0014,-0.0020,
0.5360,0.0066,-0.0075,0.0007,0.0041,-0.0014,-0.0020,
0.5370,0.0066,-0.0075,0.0007,0.0004,-0.0014,-0.0040,
0.5920,0.0066,-0.0075,0.0007,0.0004,-0.0014,-0.0040,
0.5930,0.0066,-0.0075,0.0007,0.0004,-0.0014,-0.0040,
0.5940,0.0066,-0.0075,0.0007,0.0004,-0.0014,-0.0040,
0.5950,0.0066,-0.0075,0.0007,-0.0016,-0.0005,-0.0040,
0.5950,0.0257,0.0168,-0.0031,-0.0016,-0.0005,-0.0040,
0.6510,0.0257,0.0168,-0.0031,-0.0016,-0.0005,-0.0040,
0.6530,0.0257,0.0168,-0.0031,-0.0016,-0.0005,-0.0040,
0.6540,0.0257,0.0168,-0.0031,-0.0016,-0.0005,-0.0040,
0.6540,0.0257,0.0168,-0.0031,-0.0061,0.0019,-0.0052,
0.6550,0.0041,0.0085,-0.0036,-0.0061,0.0019,-0.0052,
0.7100,0.0041,0.0085,-0.0036,-0.0061,0.0019,-0.0052,
0.7100,0.0041,0.0085,-0.0036,-0.0061,0.0019,-0.0052,
0.7110,0.0041,0.0085,-0.0036,-0.0061,0.0019,-0.0052,
0.7120,0.0041,0.0085,-0.0036,-0.0078,-0.0050,-0.0048,
0.7120,-0.0099,-0.0047,-0.0045,-0.0078,-0.0050,-0.0048,
0.7680,-0.0099,-0.0047,-0.0045,-0.0078,-0.0050,-0.0048,
0.7690,-0.0099,-0.0047,-0.0045,-0.0078,-0.0050,-0.0048,
0.7690,-0.0099,-0.0047,-0.0045,-0.0078,-0.0050,-0.0048,
0.7700,0.0310,0.0068,-0.0048,-0.0078,-0.0050,-0.0048,
0.7710,0.0310,0.0068,-0.0048,-0.0073,-0.0128,-0.0004,
0.8270,0.0310,0.0068,-0.0048,-0.0073,-0.0128,-0.0004,
0.8280,0.0310,0.0068,-0.0048,-0.0073,-0.0128,-0.0004,
0.8290,0.0310,0.0068,-0.0048,-0.0073,-0.0128,-0.0004,
0.8300,0.0310,0.0068,-0.0048,-0.0053,-0.0071,-0.0032,
0.8300,0.0289,-0.0076,0.0048,-0.0053,-0.0071,-0.0032,
0.8840,0.0289,-0.0076,0.0048,-0.0053,-0.0071,-0.0032,
0.8850,0.0289,-0.0076,0.0048,-0.0053,-0.0071,-0.0032,
0.8850,0.0289,-0.0076,0.0048,-0.0053,-0.0071,-0.0032,
0.8860,-0.0255,-0.0193,-0.0364,-0.0053,-0.0071,-0.0032,
0.8860,-0.0255,-0.0193,-0.0364,0.0000,-0.0054,-0.0048,
0.9440,-0.0255,-0.0193,-0.0364,0.0000,-0.0054,-0.0048,
0.9450,-0.0255,-0.0193,-0.0364,0.0000,-0.0054,-0.0048,
0.9450,-0.0255,-0.0193,-0.0364,0.0000,-0.0054,-0.0048,
0.9460,-0.0255,-0.0193,-0.0364,-0.0016,-0.0156,0.0017,
0.9460,0.0497,0.0082,0.0214,-0.0016,-0.0156,0.0017,
1.0020,0.0497,0.0082,0.0214,-0.0016,-0.0156,0.0017,
1.0030,0.0497,0.0082,0.0214,-0.0016,-0.0156,0.0017,
1.0040,0.0497,0.0082,0.0214,-0.0016,-0.0156,0.0017,
1.0040,0.0497,0.0082,0.0214,-0.0061,-0.0046,-0.0003,
1.0050,0.0056,0.0289,-0.0226,-0.0061,-0.0046,-0.0003,
1.0610,0.0056,0.0289,-0.0226,-0.0061,-0.0046,-0.0003,
1.0620,0.0056,0.0289,-0.0226,-0.0061,-0.0046,-0.0003,
1.0620,0.0056,0.0289,-0.0226,-0.0061,-0.0046,-0.0003,
1.0630,0.0056,0.0289,-0.0226,-0.0057,-0.0034,0.0037,
1.0630,0.0075,0.0061,-0.0082,-0.0057,-0.0034,0.0037,
1.1190,0.0075,0.0061,-0.0082,-0.0057,-0.0034,0.0037,
1.1210,0.0075,0.0061,-0.0082,-0.0057,-0.0034,0.0037,
1.1210,0.0075,0.0061,-0.0082,-0.0057,-0.0034,0.0037,
1.1220,0.0075,0.0061,-0.0082,-0.0098,0.0056,0.0013,
1.1220,0.0036,-0.0079,-0.0184,-0.0098,0.0056,0.0013,
1.1780,0.0036,-0.0079,-0.0184,-0.0098,0.0056,0.0013,
1.1790,0.0036,-0.0079,-0.0184,-0.0098,0.0056,0.0013,
1.1790,0.0036,-0.0079,-0.0184,-0.0098,0.0056,0.0013,
1.1800,0.0036,-0.0079,-0.0184,-0.0110,-0.0018,0.0029,
1.1810,0.0025,-0.0077,0.0155,-0.0110,-0.0018,0.0029,
1.2370,0.0025,-0.0077,0.0155,-0.0110,-0.0018,0.0029,
1.2380,0.0025,-0.0077,0.0155,-0.0110,-0.0018,0.0029,
1.2380,0.0025,-0.0077,0.0155,-0.0110,-0.0018,0.0029,
1.2390,0.0025,-0.0077,0.0155,-0.0081,0.0052,0.0009,
1.2390,-0.0212,-0.0010,-0.0284,-0.0081,0.0052,0.0009,
1.2950,-0.0212,-0.0010,-0.0284,-0.0081,0.0052,0.0009,
1.2960,-0.0212,-0.0010,-0.0284,-0.0081,0.0052,0.0009,
1.2970,-0.0212,-0.0010,-0.0284,-0.0081,0.0052,0.0009,
1.2980,-0.0212,-0.0010,-0.0284,-0.0098,-0.0038,0.0033,
1.2980,-0.0168,-0.0036,-0.0183,-0.0098,-0.0038,0.0033,
1.3540,-0.0168,-0.0036,-0.0183,-0.0098,-0.0038,0.0033,
1.3550,-0.0168,-0.0036,-0.0183,-0.0098,-0.0038,0.0033,
1.3550,-0.0168,-0.0036,-0.0183,-0.0098,-0.0038,0.0033,
1.3560,-0.0173,-0.0034,-0.0147,-0.0098,-0.0038,0.0033,
1.3560,-0.0173,-0.0034,-0.0147,-0.0126,-0.0123,0.0045,
1.4120,-0.0173,-0.0034,-0.0147,-0.0126,-0.0123,0.0045,
1.4140,-0.0173,-0.0034,-0.0147,-0.0126,-0.0123,0.0045,
1.4150,-0.0173,-0.0034,-0.0147,-0.0126,-0.0123,0.0045,
1.4150,-0.0173,-0.0034,-0.0147,-0.0147,-0.0119,0.0033,
1.4160,0.0055,-0.0060,-0.0062,-0.0147,-0.0119,0.0033,
1.4700,0.0055,-0.0060,-0.0062,-0.0147,-0.0119,0.0033,
1.4710,0.0055,-0.0060,-0.0062,-0.0147,-0.0119,0.0033,
1.4710,0.0055,-0.0060,-0.0062,-0.0147,-0.0119,0.0033,
1.4720,0.0055,-0.0060,-0.0062,-0.0163,-0.0091,0.0017,
1.4720,-0.0182,0.0029,-0.0071,-0.0163,-0.0091,0.0017,
1.5320,-0.0182,0.0029,-0.0071,-0.0163,-0.0091,0.0017,
1.5330,-0.0182,0.0029,-0.0071,-0.0163,-0.0091,0.0017,
1.5340,-0.0182,0.0029,-0.0071,-0.0163,-0.0091,0.0017,
1.5350,0.0030,-0.0102,0.0054,-0.0163,-0.0091,0.0017,
1.5350,0.0030,-0.0102,0.0054,-0.0147,-0.0140,0.0001,
1.5880,0.0030,-0.0102,0.0054,-0.0147,-0.0140,0.0001,
1.5890,0.0030,-0.0102,0.0054,-0.0147,-0.0140,0.0001,
1.5900,0.0030,-0.0102,0.0054,-0.0147,-0.0140,0.0001,
1.5900,0.0030,-0.0102,0.0054,-0.0081,-0.0144,-0.0007,
1.5910,-0.0246,-0.0101,0.0114,-0.0081,-0.0144,-0.0007,
1.6470,-0.0246,-0.0101,0.0114,-0.0081,-0.0144,-0.0007,
1.6490,-0.0246,-0.0101,0.0114,-0.0081,-0.0144,-0.0007,
1.6490,-0.0246,-0.0101,0.0114,-0.0081,-0.0144,-0.0007,
1.6500,-0.0246,-0.0101,0.0114,-0.0041,-0.0209,-0.0007,
1.6510,-0.0148,-0.0248,0.0249,-0.0041,-0.0209,-0.0007,
1.7050,-0.0148,-0.0248,0.0249,-0.0041,-0.0209,-0.0007,
1.7060,-0.0148,-0.0248,0.0249,-0.0041,-0.0209,-0.0007,
1.7060,-0.0148,-0.0248,0.0249,-0.0041,-0.0209,-0.0007,
1.7070,-0.0148,-0.0248,0.0249,0.0053,-0.0295,0.0009,
1.7080,0.0056,-0.0027,0.0093,0.0053,-0.0295,0.0009,
1.7630,0.0056,-0.0027,0.0093,0.0053,-0.0295,0.0009,
1.7640,0.0056,-0.0027,0.0093,0.0053,-0.0295,0.0009,
1.8020,0.0056,-0.0027,0.0093,0.0118,-0.0335,-0.0004,
1.8030,0.0076,-0.0096,0.0383,0.0118,-0.0335,-0.0004,
1.8500,0.0076,-0.0096,0.0383,0.0167,-0.0425,0.0001,
1.8510,0.0076,-0.0096,0.0383,0.0167,-0.0425,0.0001,
1.8520,0.0076,-0.0096,0.0383,0.0167,-0.0425,0.0001,
1.8520,0.0076,-0.0096,0.0383,0.0167,-0.0425,0.0001,
1.8530,0.0076,-0.0096,0.0383,0.0167,-0.0425,0.0001,
1.8540,0.0076,-0.0096,0.0383,0.0167,-0.0425,0.0001,
1.8540,-0.0224,0.0016,-0.0225,0.0167,-0.0425,0.0001,
1.8790,-0.0224,0.0016,-0.0225,0.0167,-0.0425,0.0001,
1.9200,-0.0224,0.0016,-0.0225,0.0085,-0.0490,0.0021,
1.9210,0.0695,0.0194,0.0559,0.0085,-0.0490,0.0021,
1.9640,0.0695,0.0194,0.0559,0.0053,-0.0433,-0.0004,
1.9660,0.0322,0.0254,-0.0169,0.0053,-0.0433,-0.0004,
1.9670,0.0322,0.0254,-0.0169,0.0053,-0.0433,-0.0004,
1.9670,0.0322,0.0254,-0.0169,0.0053,-0.0433,-0.0004,
1.9680,0.0322,0.0254,-0.0169,0.0053,-0.0433,-0.0004,
1.9680,0.0322,0.0254,-0.0169,0.0053,-0.0433,-0.0004,
1.9690,0.0322,0.0254,-0.0169,0.0053,-0.0433,-0.0004,
2.0180,0.0322,0.0254,-0.0169,0.0053,-0.0433,-0.0004,
2.0190,0.0322,0.0254,-0.0169,0.0053,-0.0433,-0.0004,
2.0190,0.0322,0.0254,-0.0169,0.0053,-0.0433,-0.0004,
2.0200,0.0322,0.0254,-0.0169,-0.0024,-0.0291,-0.0012,
2.0200,0.0519,-0.0023,0.0427,-0.0024,-0.0291,-0.0012,
2.0770,0.0519,-0.0023,0.0427,-0.0024,-0.0291,-0.0012,
2.0780,0.0519,-0.0023,0.0427,-0.0024,-0.0291,-0.0012,
2.0790,0.0519,-0.0023,0.0427,-0.0024,-0.0291,-0.0012,
2.0790,0.0519,-0.0023,0.0427,0.0000,-0.0209,-0.0048,
2.0800,0.0114,-0.0075,0.0073,0.0000,-0.0209,-0.0048,
2.1350,0.0114,-0.0075,0.0073,0.0000,-0.0209,-0.0048,
2.1350,0.0114,-0.0075,0.0073,0.0000,-0.0209,-0.0048,
2.1360,0.0114,-0.0075,0.0073,0.0000,-0.0209,-0.0048,
2.1370,0.0114,-0.0075,0.0073,0.0020,-0.0128,-0.0040,
2.1370,0.0525,0.0049,0.0197,0.0020,-0.0128,-0.0040,
2.1950,0.0525,0.0049,0.0197,0.0020,-0.0128,-0.0040,
2.1960,0.0525,0.0049,0.0197,0.0020,-0.0128,-0.0040,
2.1960,0.0525,0.0049,0.0197,0.0020,-0.0128,-0.0040,
2.1970,0.0525,0.0049,0.0197,0.0004,-0.0022,-0.0044,
2.1980,-0.0105,0.0046,0.0169,0.0004,-0.0022,-0.0044,
2.2520,-0.0105,0.0046,0.0169,0.0004,-0.0022,-0.0044,
2.2530,-0.0105,0.0046,0.0169,0.0004,-0.0022,-0.0044,
2.2540,-0.0105,0.0046,0.0169,0.0004,-0.0022,-0.0044,
2.2540,-0.0105,0.0046,0.0169,-0.0024,-0.0014,-0.0040,
2.2550,-0.0073,0.0105,-0.0267,-0.0024,-0.0014,-0.0040,
2.3100,-0.0073,0.0105,-0.0267,-0.0024,-0.0014,-0.0040,
2.3110,-0.0073,0.0105,-0.0267,-0.0024,-0.0014,-0.0040,
2.3130,-0.0073,0.0105,-0.0267,-0.0024,-0.0014,-0.0040,
2.3130,-0.0073,0.0105,-0.0267,-0.0061,0.0019,0.0001,
2.3140,-0.0101,0.0225,-0.0012,-0.0061,0.0019,0.0001,
2.3690,-0.0101,0.0225,-0.0012,-0.0061,0.0019,0.0001,
2.3700,-0.0101,0.0225,-0.0012,-0.0061,0.0019,0.0001,
2.3700,-0.0101,0.0225,-0.0012,-0.0061,0.0019,0.0001,
2.3710,-0.0101,0.0225,-0.0012,-0.0086,0.0039,0.0090,
2.3710,-0.0294,0.0036,-0.0202,-0.0086,0.0039,0.0090,
2.4280,-0.0294,0.0036,-0.0202,-0.0086,0.0039,0.0090,
2.4290,-0.0294,0.0036,-0.0202,-0.0086,0.0039,0.0090,
2.4290,-0.0294,0.0036,-0.0202,-0.0086,0.0039,0.0090,
2.4300,-0.0294,0.0036,-0.0202,-0.0049,0.0039,0.0098,
2.4300,0.0055,-0.0251,0.0457,-0.0049,0.0039,0.0098,
2.4860,0.0055,-0.0251,0.0457,-0.0049,0.0039,0.0098,
2.4870,0.0055,-0.0251,0.0457,-0.0049,0.0039,0.0098,
2.4870,0.0055,-0.0251,0.0457,-0.0049,0.0039,0.0098,
2.4880,0.0055,-0.0251,0.0457,-0.0033,0.0092,0.0062,
2.4880,0.0035,-0.0093,-0.0011,-0.0033,0.0092,0.0062,
2.5450,0.0035,-0.0093,-0.0011,-0.0033,0.0092,0.0062,
2.5460,0.0035,-0.0093,-0.0011,-0.0033,0.0092,0.0062,
2.5460,0.0035,-0.0093,-0.0011,-0.0033,0.0092,0.0062,
2.5470,0.0035,-0.0093,-0.0011,-0.0024,0.0141,0.0009,
2.5480,0.0381,0.0072,0.0098,-0.0024,0.0141,0.0009,
2.6040,0.0381,0.0072,0.0098,-0.0024,0.0141,0.0009,
2.6050,0.0381,0.0072,0.0098,-0.0024,0.0141,0.0009,
2.6050,0.0381,0.0072,0.0098,-0.0024,0.0141,0.0009,
2.6060,0.0381,0.0072,0.0098,-0.0029,0.0259,-0.0040,
2.6060,0.0275,0.0149,-0.0363,-0.0029,0.0259,-0.0040,
2.6620,0.0275,0.0149,-0.0363,-0.0029,0.0259,-0.0040,
2.6630,0.0275,0.0149,-0.0363,-0.0029,0.0259,-0.0040,
2.6630,0.0275,0.0149,-0.0363,-0.0029,0.0259,-0.0040,
2.6640,0.0275,0.0149,-0.0363,-0.0025,0.0239,-0.0004,
2.6640,-0.0382,-0.0202,0.0058,-0.0025,0.0239,-0.0004,
2.7200,-0.0382,-0.0202,0.0058,-0.0025,0.0239,-0.0004,
2.7210,-0.0382,-0.0202,0.0058,-0.0025,0.0239,-0.0004,
2.7220,-0.0382,-0.0202,0.0058,-0.0025,0.0239,-0.0004,
2.7220,-0.0382,-0.0202,0.0058,0.0024,0.0235,0.0017,
2.7230,-0.0111,0.0062,-0.0443,0.0024,0.0235,0.0017,
2.7790,-0.0111,0.0062,-0.0443,0.0024,0.0235,0.0017,
2.7800,-0.0111,0.0062,-0.0443,0.0024,0.0235,0.0017,
2.7800,-0.0111,0.0062,-0.0443,0.0024,0.0235,0.0017,
2.7810,-0.0111,0.0062,-0.0443,-0.0041,0.0186,-0.0040,
2.7810,-0.0123,-0.0037,-0.0463,-0.0041,0.0186,-0.0040,
2.8380,-0.0123,-0.0037,-0.0463,-0.0041,0.0186,-0.0040,
2.8390,-0.0123,-0.0037,-0.0463,-0.0041,0.0186,-0.0040,
2.8390,-0.0123,-0.0037,-0.0463,-0.0041,0.0186,-0.0040,
2.8400,-0.0123,-0.0037,-0.0463,-0.0073,0.0113,-0.0007,
2.8400,-0.0097,-0.0036,0.0109,-0.0073,0.0113,-0.0007,
2.8960,-0.0097,-0.0036,0.0109,-0.0073,0.0113,-0.0007,
2.8970,-0.0097,-0.0036,0.0109,-0.0073,0.0113,-0.0007,
2.8980,-0.0097,-0.0036,0.0109,-0.0073,0.0113,-0.0007,
2.8980,-0.0097,-0.0036,0.0109,-0.0090,0.0133,-0.0020,
2.8990,-0.0182,0.0106,0.0206,-0.0090,0.0133,-0.0020,
2.9560,-0.0015,0.0048,-0.0347,-0.0090,0.0133,-0.0020,
2.9580,-0.0015,0.0048,-0.0347,-0.0090,0.0133,-0.0020,
2.9580,-0.0015,0.0048,-0.0347,-0.0090,0.0133,-0.0020,
2.9590,-0.0015,0.0048,-0.0347,-0.0090,0.0133,-0.0020,
2.9590,-0.0015,0.0048,-0.0347,-0.0049,0.0121,0.0033,
3.0140,-0.0015,0.0048,-0.0347,-0.0049,0.0121,0.0033,
3.0150,-0.0015,0.0048,-0.0347,-0.0049,0.0121,0.0033,
3.0150,-0.0015,0.0048,-0.0347,-0.0049,0.0121,0.0033,
3.0160,0.0039,0.0187,0.0075,-0.0049,0.0121,0.0033,
3.0170,0.0039,0.0187,0.0075,-0.0053,0.0145,0.0037,
3.0730,0.0039,0.0187,0.0075,-0.0053,0.0145,0.0037,
3.0740,0.0039,0.0187,0.0075,-0.0053,0.0145,0.0037,
3.0750,0.0039,0.0187,0.0075,-0.0053,0.0145,0.0037,
3.0750,0.0039,0.0187,0.0075,-0.0130,0.0105,0.0119,
3.0760,-0.0598,-0.0093,0.0281,-0.0130,0.0105,0.0119,
3.1300,-0.0598,-0.0093,0.0281,-0.0130,0.0105,0.0119,
3.1310,-0.0598,-0.0093,0.0281,-0.0130,0.0105,0.0119,
3.1310,-0.0598,-0.0093,0.0281,-0.0130,0.0105,0.0119,
3.1320,-0.0598,-0.0093,0.0281,-0.0053,-0.0005,0.0217,
3.1330,-0.0153,-0.0329,0.0457,-0.0053,-0.0005,0.0217,
3.1900,-0.0153,-0.0329,0.0457,-0.0053,-0.0005,0.0217,
3.1900,-0.0153,-0.0329,0.0457,-0.0053,-0.0005,0.0217,
3.1910,-0.0153,-0.0329,0.0457,-0.0053,-0.0005,0.0217,
3.1910,-0.0153,-0.0329,0.0457,0.0057,-0.0132,0.0094,
3.1910,0.0128,-0.0265,0.0245,0.0057,-0.0132,0.0094,
3.2470,0.0128,-0.0265,0.0245,0.0057,-0.0132,0.0094,
3.2480,0.0128,-0.0265,0.0245,0.0057,-0.0132,0.0094,
3.2490,0.0128,-0.0265,0.0245,0.0057,-0.0132,0.0094,
3.2490,0.0128,-0.0265,0.0245,0.0061,-0.0164,-0.0012,
3.2500,-0.0114,-0.0140,0.0277,0.0061,-0.0164,-0.0012,
3.3060,-0.0114,-0.0140,0.0277,0.0061,-0.0164,-0.0012,
3.3070,-0.0114,-0.0140,0.0277,0.0061,-0.0164,-0.0012,
3.3070,-0.0114,-0.0140,0.0277,0.0061,-0.0164,-0.0012,
3.3080,-0.0114,-0.0140,0.0277,0.0073,-0.0242,-0.0007,
3.3080,0.0014,-0.0227,0.0053,0.0073,-0.0242,-0.0007,
3.3650,0.0014,-0.0227,0.0053,0.0073,-0.0242,-0.0007,
3.3670,0.0014,-0.0227,0.0053,0.0073,-0.0242,-0.0007,
3.3670,0.0014,-0.0227,0.0053,0.0073,-0.0242,-0.0007,
3.3680,0.0014,-0.0227,0.0053,0.0041,-0.0315,-0.0032,
3.3720,0.0036,0.0170,-0.0300,0.0041,-0.0315,-0.0032,
3.4230,0.0036,0.0170,-0.0300,0.0041,-0.0315,-0.0032,
3.4240,0.0036,0.0170,-0.0300,0.0041,-0.0315,-0.0032,
3.4250,0.0036,0.0170,-0.0300,0.0041,-0.0315,-0.0032,
3.4270,0.0036,0.0170,-0.0300,0.0053,-0.0331,-0.0073,
3.4280,0.0440,0.0086,0.0193,0.0053,-0.0331,-0.0073,
3.4820,0.0440,0.0086,0.0193,0.0053,-0.0331,-0.0073,
3.4820,0.0440,0.0086,0.0193,0.0053,-0.0331,-0.0073,
3.4830,0.0440,0.0086,0.0193,0.0053,-0.0331,-0.0073,
3.4840,0.0518,-0.0108,0.0393,0.0053,-0.0331,-0.0073,
3.4840,0.0518,-0.0108,0.0393,0.0081,-0.0258,-0.0073,
3.5400,0.0518,-0.0108,0.0393,0.0081,-0.0258,-0.0073,
3.5410,0.0518,-0.0108,0.0393,0.0081,-0.0258,-0.0073,
3.5410,0.0518,-0.0108,0.0393,0.0081,-0.0258,-0.0073,
3.5420,0.0394,0.0237,-0.0160,0.0081,-0.0258,-0.0073,
3.5420,0.0394,0.0237,-0.0160,0.0057,-0.0140,-0.0093,
3.5990,0.0394,0.0237,-0.0160,0.0057,-0.0140,-0.0093,
3.6000,0.0394,0.0237,-0.0160,0.0057,-0.0140,-0.0093,
3.6010,0.0394,0.0237,-0.0160,0.0057,-0.0140,-0.0093,
3.6010,0.0394,0.0237,-0.0160,0.0008,-0.0058,-0.0097,
3.6020,0.0211,0.0109,-0.0119,0.0008,-0.0058,-0.0097,
3.6590,0.0211,0.0109,-0.0119,0.0008,-0.0058,-0.0097,
3.6610,0.0211,0.0109,-0.0119,0.0008,-0.0058,-0.0097,
3.6610,0.0211,0.0109,-0.0119,0.0008,-0.0058,-0.0097,
3.6610,0.0211,0.0109,-0.0119,-0.0029,-0.0022,-0.0101,
3.6620,0.0162,-0.0007,-0.0220,-0.0029,-0.0022,-0.0101,
3.7160,0.0162,-0.0007,-0.0220,-0.0029,-0.0022,-0.0101,
3.7160,0.0162,-0.0007,-0.0220,-0.0029,-0.0022,-0.0101,
3.7160,0.0162,-0.0007,-0.0220,-0.0029,-0.0022,-0.0101,
3.7170,0.0162,-0.0007,-0.0220,-0.0049,0.0047,-0.0105,
3.7170,-0.0145,-0.0082,-0.0410,-0.0049,0.0047,-0.0105,
3.7740,-0.0145,-0.0082,-0.0410,-0.0049,0.0047,-0.0105,
3.7750,-0.0145,-0.0082,-0.0410,-0.0049,0.0047,-0.0105,
3.7750,-0.0145,-0.0082,-0.0410,-0.0049,0.0047,-0.0105,
3.7760,-0.0145,-0.0082,-0.0410,-0.0078,-0.0058,-0.0048,
3.7760,-0.0101,0.0124,-0.0024,-0.0078,-0.0058,-0.0048,
3.8350,-0.0101,0.0124,-0.0024,-0.0078,-0.0058,-0.0048,
3.8360,-0.0101,0.0124,-0.0024,-0.0078,-0.0058,-0.0048,
3.8370,-0.0101,0.0124,-0.0024,-0.0078,-0.0058,-0.0048,
3.8380,-0.0101,0.0124,-0.0024,-0.0118,0.0011,-0.0052,
3.8390,-0.0241,0.0256,-0.0116,-0.0118,0.0011,-0.0052,
3.8920,-0.0241,0.0256,-0.0116,-0.0118,0.0011,-0.0052,
3.8930,-0.0241,0.0256,-0.0116,-0.0118,0.0011,-0.0052,
3.8940,-0.0241,0.0256,-0.0116,-0.0118,0.0011,-0.0052,
3.8940,-0.0241,0.0256,-0.0116,-0.0139,-0.0014,-0.0060,
3.8950,0.0129,-0.0017,-0.0082,-0.0139,-0.0014,-0.0060,
3.9510,0.0129,-0.0017,-0.0082,-0.0139,-0.0014,-0.0060,
3.9530,0.0129,-0.0017,-0.0082,-0.0139,-0.0014,-0.0060,
3.9550,0.0129,-0.0017,-0.0082,-0.0139,-0.0014,-0.0060,
3.9560,0.0129,-0.0017,-0.0082,-0.0098,0.0149,-0.0097,
3.9570,0.0795,-0.0455,0.0302,-0.0098,0.0149,-0.0097,
4.0090,0.0795,-0.0455,0.0302,-0.0098,0.0149,-0.0097,
4.0100,0.0795,-0.0455,0.0302,-0.0098,0.0149,-0.0097,
4.0110,0.0795,-0.0455,0.0302,-0.0098,0.0149,-0.0097,
4.0110,-0.0356,0.0053,0.0274,-0.0098,0.0149,-0.0097,
4.0120,-0.0356,0.0053,0.0274,0.0016,0.0251,-0.0081,
4.0690,-0.0356,0.0053,0.0274,0.0016,0.0251,-0.0081,
4.0700,-0.0356,0.0053,0.0274,0.0016,0.0251,-0.0081,
4.0720,-0.0356,0.0053,0.0274,0.0016,0.0251,-0.0081,
4.0720,-0.0356,0.0053,0.0274,0.0073,0.0239,0.0013,
4.0730,-0.0079,0.0036,0.0064,0.0073,0.0239,0.0013,
4.1260,-0.0079,0.0036,0.0064,0.0073,0.0239,0.0013,
4.1270,-0.0079,0.0036,0.0064,0.0073,0.0239,0.0013,
4.1280,-0.0079,0.0036,0.0064,0.0073,0.0239,0.0013,
4.1280,-0.0079,0.0036,0.0064,0.0033,0.0182,-0.0036,
4.1290,-0.0451,0.0134,-0.0096,0.0033,0.0182,-0.0036,
4.1850,-0.0451,0.0134,-0.0096,0.0033,0.0182,-0.0036,
4.1860,-0.0451,0.0134,-0.0096,0.0033,0.0182,-0.0036,
4.1870,-0.0451,0.0134,-0.0096,0.0033,0.0182,-0.0036,
4.1880,-0.0451,0.0134,-0.0096,0.0016,0.0047,-0.0016,
4.1880,-0.0303,0.0128,-0.0060,0.0016,0.0047,-0.0016,
4.2430,-0.0303,0.0128,-0.0060,0.0016,0.0047,-0.0016,
4.2440,-0.0303,0.0128,-0.0060,0.0016,0.0047,-0.0016,
4.2440,-0.0303,0.0128,-0.0060,0.0016,0.0047,-0.0016,
4.2450,-0.0303,0.0128,-0.0060,0.0041,-0.0018,0.0045,
4.2450,-0.0086,-0.0028,0.0051,0.0041,-0.0018,0.0045,
4.3020,-0.0086,-0.0028,0.0051,0.0041,-0.0018,0.0045,
4.3030,-0.0086,-0.0028,0.0051,0.0041,-0.0018,0.0045,
4.3040,-0.0086,-0.0028,0.0051,0.0041,-0.0018,0.0045,
4.3040,-0.0086,-0.0028,0.0051,0.0061,-0.0026,0.0078,
4.3050,0.0027,0.0152,0.0167,0.0061,-0.0026,0.0078,
4.3610,0.0027,0.0152,0.0167,0.0061,-0.0026,0.0078,
4.3620,0.0027,0.0152,0.0167,0.0061,-0.0026,0.0078,
4.3630,0.0027,0.0152,0.0167,0.0061,-0.0026,0.0078,
4.3630,0.0337,0.0194,-0.0144,0.0061,-0.0026,0.0078,
4.3640,0.0337,0.0194,-0.0144,0.0061,0.0043,0.0021,
4.4190,0.0337,0.0194,-0.0144,0.0061,0.0043,0.0021,
4.4210,0.0337,0.0194,-0.0144,0.0061,0.0043,0.0021,
4.4210,0.0337,0.0194,-0.0144,0.0061,0.0043,0.0021,
4.4220,0.0337,0.0194,-0.0144,-0.0008,0.0100,0.0005,
4.4220,0.0059,0.0171,-0.0170,-0.0008,0.0100,0.0005,
4.4780,0.0059,0.0171,-0.0170,-0.0008,0.0100,0.0005,
4.4790,0.0059,0.0171,-0.0170,-0.0008,0.0100,0.0005,
4.4800,0.0059,0.0171,-0.0170,-0.0008,0.0100,0.0005,
4.4800,0.0059,0.0171,-0.0170,-0.0016,0.0092,0.0029,
4.4810,-0.0307,0.0037,-0.0205,-0.0016,0.0092,0.0029,
4.5370,-0.0307,0.0037,-0.0205,-0.0016,0.0092,0.0029,
4.5380,-0.0307,0.0037,-0.0205,-0.0016,0.0092,0.0029,
4.5390,-0.0307,0.0037,-0.0205,-0.0016,0.0092,0.0029,
4.5400,0.0133,-0.0005,-0.0072,-0.0016,0.0092,0.0029,
4.5400,0.0133,-0.0005,-0.0072,-0.0033,-0.0005,0.0025,
4.5960,0.0133,-0.0005,-0.0072,-0.0033,-0.0005,0.0025,
4.5970,0.0133,-0.0005,-0.0072,-0.0033,-0.0005,0.0025,
4.5980,0.0133,-0.0005,-0.0072,-0.0033,-0.0005,0.0025,
4.5980,0.0133,-0.0005,-0.0072,-0.0045,0.0113,-0.0044,
4.5990,0.0106,-0.0069,-0.0145,-0.0045,0.0113,-0.0044,
4.6540,0.0106,-0.0069,-0.0145,-0.0045,0.0113,-0.0044,
4.6550,0.0106,-0.0069,-0.0145,-0.0045,0.0113,-0.0044,
4.6560,0.0106,-0.0069,-0.0145,-0.0045,0.0113,-0.0044,
4.6560,0.0106,-0.0069,-0.0145,-0.0029,0.0109,-0.0069,
4.6570,-0.0266,-0.0123,-0.0494,-0.0029,0.0109,-0.0069,
4.7150,-0.0266,-0.0123,-0.0494,-0.0029,0.0109,-0.0069,
4.7160,-0.0266,-0.0123,-0.0494,-0.0029,0.0109,-0.0069,
4.7170,-0.0266,-0.0123,-0.0494,-0.0029,0.0109,-0.0069,
4.7180,-0.0266,-0.0123,-0.0494,-0.0078,0.0125,-0.0065,
4.7180,0.0776,-0.0047,0.0017,-0.0078,0.0125,-0.0065,
4.7710,0.0776,-0.0047,0.0017,-0.0078,0.0125,-0.0065,
4.7720,0.0776,-0.0047,0.0017,-0.0078,0.0125,-0.0065,
4.7720,0.0776,-0.0047,0.0017,-0.0078,0.0125,-0.0065,
4.7730,0.0776,-0.0047,0.0017,-0.0122,0.0406,-0.0142,
4.7730,0.0473,0.0009,-0.0093,-0.0122,0.0406,-0.0142,
4.8310,0.0473,0.0009,-0.0093,-0.0122,0.0406,-0.0142,
4.8330,0.0473,0.0009,-0.0093,-0.0122,0.0406,-0.0142,
4.8340,0.0473,0.0009,-0.0093,-0.0122,0.0406,-0.0142,
4.8340,-0.0364,0.0004,-0.0375,-0.0122,0.0406,-0.0142,
4.8350,-0.0364,0.0004,-0.0375,-0.0130,0.0491,-0.0052,
4.8880,-0.0364,0.0004,-0.0375,-0.0130,0.0491,-0.0052,
4.8890,-0.0364,0.0004,-0.0375,-0.0130,0.0491,-0.0052,
4.8900,-0.0364,0.0004,-0.0375,-0.0130,0.0491,-0.0052,
4.8900,-0.0499,-0.0088,-0.0255,-0.0130,0.0491,-0.0052,
4.8910,-0.0499,-0.0088,-0.0255,-0.0126,0.0504,0.0005,
4.9470,-0.0499,-0.0088,-0.0255,-0.0126,0.0504,0.0005,
4.9500,-0.0499,-0.0088,-0.0255,-0.0126,0.0504,0.0005,
4.9500,-0.0499,-0.0088,-0.0255,-0.0126,0.0504,0.0005,
4.9510,-0.0499,-0.0088,-0.0255,-0.0143,0.0239,0.0017,
4.9510,-0.0797,-0.0121,0.0179,-0.0143,0.0239,0.0017,
5.0050,-0.0797,-0.0121,0.0179,-0.0143,0.0239,0.0017,
5.0060,-0.0797,-0.0121,0.0179,-0.0143,0.0239,0.0017,
5.0060,-0.0797,-0.0121,0.0179,-0.0143,0.0239,0.0017,
5.0070,-0.0797,-0.0121,0.0179,-0.0081,0.0092,-0.0004,
5.0070,-0.0370,-0.0083,0.0321,-0.0081,0.0092,-0.0004,
5.0630,-0.0370,-0.0083,0.0321,-0.0081,0.0092,-0.0004,
5.0650,-0.0370,-0.0083,0.0321,-0.0081,0.0092,-0.0004,
5.0650,-0.0370,-0.0083,0.0321,-0.0081,0.0092,-0.0004,
5.0660,-0.0370,-0.0083,0.0321,0.0012,0.0011,0.0070,
5.0660,0.0067,0.0186,0.0093,0.0012,0.0011,0.0070,
5.1220,0.0067,0.0186,0.0093,0.0012,0.0011,0.0070,
5.1230,0.0067,0.0186,0.0093,0.0012,0.0011,0.0070,
5.1230,0.0067,0.0186,0.0093,0.0012,0.0011,0.0070,
5.1240,0.0067,0.0186,0.0093,-0.0078,0.0007,0.0090,
5.1250,-0.0029,0.0328,-0.0204,-0.0078,0.0007,0.0090,
5.1810,-0.0029,0.0328,-0.0204,-0.0078,0.0007,0.0090,
5.1820,-0.0029,0.0328,-0.0204,-0.0078,0.0007,0.0090,
5.1830,-0.0029,0.0328,-0.0204,-0.0078,0.0007,0.0090,
5.1830,-0.0029,0.0328,-0.0204,-0.0179,-0.0026,0.0045,
5.1840,-0.0147,0.0103,-0.0118,-0.0179,-0.0026,0.0045,
5.2390,-0.0147,0.0103,-0.0118,-0.0179,-0.0026,0.0045,
5.2400,-0.0147,0.0103,-0.0118,-0.0179,-0.0026,0.0045,
5.2410,-0.0147,0.0103,-0.0118,-0.0179,-0.0026,0.0045,
5.2420,-0.0147,0.0103,-0.0118,-0.0289,-0.0095,0.0094,
5.2430,-0.0117,-0.0117,0.0374,-0.0289,-0.0095,0.0094,
5.2980,-0.0117,-0.0117,0.0374,-0.0289,-0.0095,0.0094,
5.2980,-0.0117,-0.0117,0.0374,-0.0289,-0.0095,0.0094,
5.2990,-0.0117,-0.0117,0.0374,-0.0289,-0.0095,0.0094,
5.2990,-0.0117,-0.0117,0.0374,-0.0037,-0.0091,0.0115,
5.3000,0.0026,-0.0231,0.0423,-0.0037,-0.0091,0.0115,
5.3560,0.0026,-0.0231,0.0423,-0.0037,-0.0091,0.0115,
5.3570,0.0026,-0.0231,0.0423,-0.0037,-0.0091,0.0115,
5.3570,0.0026,-0.0231,0.0423,-0.0037,-0.0091,0.0115,
5.3580,0.0026,-0.0231,0.0423,0.0073,-0.0148,0.0094,
5.3580,0.0159,-0.0199,0.0315,0.0073,-0.0148,0.0094,
5.4150,0.0159,-0.0199,0.0315,0.0073,-0.0148,0.0094,
5.4160,0.0159,-0.0199,0.0315,0.0073,-0.0148,0.0094,
5.4170,0.0159,-0.0199,0.0315,0.0073,-0.0148,0.0094,
5.4170,0.0159,-0.0199,0.0315,0.0094,-0.0205,0.0021,
5.4180,0.0005,-0.0160,0.0134,0.0094,-0.0205,0.0021,
5.4730,0.0005,-0.0160,0.0134,0.0094,-0.0205,0.0021,
5.4740,0.0005,-0.0160,0.0134,0.0094,-0.0205,0.0021,
5.4750,0.0005,-0.0160,0.0134,0.0094,-0.0205,0.0021,
5.4750,0.0005,-0.0160,0.0134,0.0102,-0.0266,-0.0012,
5.4760,0.0462,0.0104,0.0287,0.0102,-0.0266,-0.0012,
5.5320,0.0462,0.0104,0.0287,0.0102,-0.0266,-0.0012,
5.5330,0.0462,0.0104,0.0287,0.0102,-0.0266,-0.0012,
5.5330,0.0462,0.0104,0.0287,0.0102,-0.0266,-0.0012,
5.5340,0.0462,0.0104,0.0287,0.0094,-0.0071,-0.0085,
5.5350,0.0783,-0.0013,0.0264,0.0094,-0.0071,-0.0085,
5.5900,0.0783,-0.0013,0.0264,0.0094,-0.0071,-0.0085,
5.5910,0.0783,-0.0013,0.0264,0.0094,-0.0071,-0.0085,
5.5920,0.0783,-0.0013,0.0264,0.0094,-0.0071,-0.0085,
5.5920,0.0783,-0.0013,0.0264,0.0118,0.0113,-0.0130,
5.5930,0.0473,-0.0050,-0.0112,0.0118,0.0113,-0.0130,
5.6490,0.0473,-0.0050,-0.0112,0.0118,0.0113,-0.0130,
5.6500,0.0473,-0.0050,-0.0112,0.0118,0.0113,-0.0130,
5.6500,0.0473,-0.0050,-0.0112,0.0118,0.0113,-0.0130,
5.6510,0.0473,-0.0050,-0.0112,0.0134,0.0141,-0.0028,
5.6510,0.0081,-0.0044,0.0606,0.0134,0.0141,-0.0028,
5.7080,0.0081,-0.0044,0.0606,0.0134,0.0141,-0.0028,
5.7090,0.0081,-0.0044,0.0606,0.0134,0.0141,-0.0028,
5.7100,0.0081,-0.0044,0.0606,0.0134,0.0141,-0.0028,
5.7100,0.0081,-0.0044,0.0606,0.0187,0.0190,0.0041,
5.7110,-0.0383,0.0081,-0.0074,0.0187,0.0190,0.0041,
5.7660,-0.0383,0.0081,-0.0074,0.0187,0.0190,0.0041,
5.7670,-0.0383,0.0081,-0.0074,0.0187,0.0190,0.0041,
5.7680,-0.0383,0.0081,-0.0074,0.0187,0.0190,0.0041,
5.7680,-0.0383,0.0081,-0.0074,0.0102,0.0023,0.0033,
5.7690,-0.0330,-0.0052,-0.0268,0.0102,0.0023,0.0033,
5.8260,-0.0330,-0.0052,-0.0268,0.0102,0.0023,0.0033,
5.8270,-0.0330,-0.0052,-0.0268,0.0102,0.0023,0.0033,
5.8280,-0.0330,-0.0052,-0.0268,0.0102,0.0023,0.0033,
5.8290,-0.0330,-0.0052,-0.0268,0.0057,-0.0038,0.0025,
5.8290,-0.0007,-0.0009,-0.0041,0.0057,-0.0038,0.0025,
5.8830,-0.0007,-0.0009,-0.0041,0.0057,-0.0038,0.0025,
5.8840,-0.0007,-0.0009,-0.0041,0.0057,-0.0038,0.0025,
5.8850,-0.0007,-0.0009,-0.0041,0.0057,-0.0038,0.0025,
5.8850,-0.0007,-0.0009,-0.0041,0.0138,-0.0050,0.0086,
5.8860,0.0350,-0.0083,0.0372,0.0138,-0.0050,0.0086,
5.9420,0.0350,-0.0083,0.0372,0.0138,-0.0050,0.0086,
5.9430,0.0350,-0.0083,0.0372,0.0138,-0.0050,0.0086,
5.9440,0.0350,-0.0083,0.0372,0.0138,-0.0050,0.0086,
5.9450,0.0350,-0.0083,0.0372,0.0179,0.0100,0.0058,
5.9460,0.0269,-0.0011,0.0107,0.0179,0.0100,0.0058,
6.0000,0.0269,-0.0011,0.0107,0.0179,0.0100,0.0058,
6.0010,0.0269,-0.0011,0.0107,0.0179,0.0100,0.0058,
6.0020,0.0269,-0.0011,0.0107,0.0179,0.0100,0.0058,
6.0030,0.0269,-0.0011,0.0107,0.0126,0.0210,0.0005,
6.0030,0.0028,0.0024,-0.0044,0.0126,0.0210,0.0005,
6.0590,0.0028,0.0024,-0.0044,0.0126,0.0210,0.0005,
6.0610,0.0028,0.0024,-0.0044,0.0126,0.0210,0.0005,
6.0610,0.0028,0.0024,-0.0044,0.0126,0.0210,0.0005,
6.0620,0.0028,0.0024,-0.0044,0.0028,0.0182,-0.0012,
6.0620,-0.0275,0.0037,0.0125,0.0028,0.0182,-0.0012,
6.1180,-0.0275,0.0037,0.0125,0.0028,0.0182,-0.0012,
6.1190,-0.0275,0.0037,0.0125,0.0028,0.0182,-0.0012,
6.1190,-0.0275,0.0037,0.0125,0.0028,0.0182,-0.0012,
6.1200,-0.0275,0.0037,0.0125,-0.0029,0.0121,-0.0007,
6.1200,-0.0353,0.0082,0.0016,-0.0029,0.0121,-0.0007,
6.1760,-0.0353,0.0082,0.0016,-0.0029,0.0121,-0.0007,
6.1770,-0.0353,0.0082,0.0016,-0.0029,0.0121,-0.0007,
6.1780,-0.0353,0.0082,0.0016,-0.0029,0.0121,-0.0007,
6.1780,-0.0353,0.0082,0.0016,-0.0029,-0.0022,0.0017,
6.1790,-0.0371,0.0099,-0.0171,-0.0029,-0.0022,0.0017,
6.2350,-0.0371,0.0099,-0.0171,-0.0029,-0.0022,0.0017,
6.2360,-0.0371,0.0099,-0.0171,-0.0029,-0.0022,0.0017,
6.2360,-0.0371,0.0099,-0.0171,-0.0029,-0.0022,0.0017,
6.2370,-0.0371,0.0099,-0.0171,-0.0065,-0.0087,-0.0040,
6.2380,0.0085,-0.0140,0.0123,-0.0065,-0.0087,-0.0040,
6.2940,0.0085,-0.0140,0.0123,-0.0065,-0.0087,-0.0040,
6.2950,0.0085,-0.0140,0.0123,-0.0065,-0.0087,-0.0040,
6.2960,0.0085,-0.0140,0.0123,-0.0065,-0.0087,-0.0040,
6.2960,0.0362,-0.0059,0.0068,-0.0065,-0.0087,-0.0040,
6.2970,0.0362,-0.0059,0.0068,-0.0033,-0.0071,-0.0069,
6.3520,0.0362,-0.0059,0.0068,-0.0033,-0.0071,-0.0069,
6.3530,0.0362,-0.0059,0.0068,-0.0033,-0.0071,-0.0069,
6.3540,0.0362,-0.0059,0.0068,-0.0033,-0.0071,-0.0069,
6.3540,0.0362,-0.0059,0.0068,0.0000,0.0048,-0.0052,
6.3550,0.0353,0.0042,0.0098,0.0000,0.0048,-0.0052,
6.4100,0.0353,0.0042,0.0098,0.0000,0.0048,-0.0052,
6.4110,0.0353,0.0042,0.0098,0.0000,0.0048,-0.0052,
6.4120,0.0353,0.0042,0.0098,0.0000,0.0048,-0.0052,
6.4120,0.0353,0.0042,0.0098,0.0024,0.0178,-0.0093,
6.4130,0.0480,-0.0227,0.0072,0.0024,0.0178,-0.0093,
6.4690,-0.0257,0.0053,-0.0213,0.0024,0.0178,-0.0093,
6.4710,-0.0257,0.0053,-0.0213,0.0024,0.0178,-0.0093,
6.4720,-0.0257,0.0053,-0.0213,0.0024,0.0178,-0.0093,
6.4730,-0.0257,0.0053,-0.0213,0.0024,0.0178,-0.0093,
6.4740,-0.0257,0.0053,-0.0213,0.0037,0.0219,-0.0126,
6.5280,-0.0257,0.0053,-0.0213,0.0037,0.0219,-0.0126,
6.5290,-0.0257,0.0053,-0.0213,0.0037,0.0219,-0.0126,
6.5290,-0.0257,0.0053,-0.0213,0.0037,0.0219,-0.0126,
6.5300,-0.0257,0.0053,-0.0213,0.0057,0.0060,0.0005,
6.5300,-0.0532,0.0050,0.0098,0.0057,0.0060,0.0005,
6.5870,-0.0532,0.0050,0.0098,0.0057,0.0060,0.0005,
6.5890,-0.0532,0.0050,0.0098,0.0057,0.0060,0.0005,
6.5890,-0.0532,0.0050,0.0098,0.0057,0.0060,0.0005,
6.5900,-0.0532,0.0050,0.0098,-0.0016,-0.0054,-0.0007,
6.5900,-0.0303,0.0342,-0.0030,-0.0016,-0.0054,-0.0007,
6.6450,-0.0303,0.0342,-0.0030,-0.0016,-0.0054,-0.0007,
6.6460,-0.0303,0.0342,-0.0030,-0.0016,-0.0054,-0.0007,
6.6470,-0.0303,0.0342,-0.0030,-0.0016,-0.0054,-0.0007,
6.6480,-0.0019,0.0046,-0.0389,-0.0016,-0.0054,-0.0007,
6.6480,-0.0019,0.0046,-0.0389,-0.0073,-0.0140,-0.0020,
6.7040,-0.0019,0.0046,-0.0389,-0.0073,-0.0140,-0.0020,
6.7060,-0.0019,0.0046,-0.0389,-0.0073,-0.0140,-0.0020,
6.7070,-0.0019,0.0046,-0.0389,-0.0073,-0.0140,-0.0020,
6.7070,-0.0019,0.0046,-0.0389,-0.0078,-0.0087,-0.0032,
6.7080,0.0443,-0.0047,-0.0007,-0.0078,-0.0087,-0.0032,
6.7620,0.0443,-0.0047,-0.0007,-0.0078,-0.0087,-0.0032,
6.7630,0.0443,-0.0047,-0.0007,-0.0078,-0.0087,-0.0032,
6.7630,0.0443,-0.0047,-0.0007,-0.0078,-0.0087,-0.0032,
6.7640,0.0443,-0.0047,-0.0007,-0.0061,-0.0018,-0.0024,
6.7650,0.0159,-0.0057,-0.0031,-0.0061,-0.0018,-0.0024,
6.8210,0.0159,-0.0057,-0.0031,-0.0061,-0.0018,-0.0024,
6.8220,0.0159,-0.0057,-0.0031,-0.0061,-0.0018,-0.0024,
6.8230,0.0159,-0.0057,-0.0031,-0.0061,-0.0018,-0.0024,
6.8230,0.0132,0.0093,-0.0138,-0.0061,-0.0018,-0.0024,
6.8240,0.0132,0.0093,-0.0138,-0.0000,0.0072,-0.0044,
6.8790,0.0132,0.0093,-0.0138,-0.0000,0.0072,-0.0044,
6.8810,0.0132,0.0093,-0.0138,-0.0000,0.0072,-0.0044,
6.8810,0.0132,0.0093,-0.0138,-0.0000,0.0072,-0.0044,
6.8820,0.0132,0.0093,-0.0138,-0.0008,0.0088,-0.0052,
6.8820,0.0076,-0.0008,-0.0193,-0.0008,0.0088,-0.0052,
6.9380,0.0076,-0.0008,-0.0193,-0.0008,0.0088,-0.0052,
6.9390,0.0076,-0.0008,-0.0193,-0.0008,0.0088,-0.0052,
6.9390,0.0076,-0.0008,-0.0193,-0.0008,0.0088,-0.0052,
6.9400,-0.0110,-0.0043,-0.0148,-0.0008,0.0088,-0.0052,
6.9400,-0.0110,-0.0043,-0.0148,-0.0041,0.0052,-0.0032,
6.9960,-0.0110,-0.0043,-0.0148,-0.0041,0.0052,-0.0032,
6.9970,-0.0110,-0.0043,-0.0148,-0.0041,0.0052,-0.0032,
6.9990,-0.0110,-0.0043,-0.0148,-0.0041,0.0052,-0.0032,
7.0000,-0.0110,-0.0043,-0.0148,-0.0029,-0.0030,-0.0016,
7.0020,-0.0252,-0.0060,-0.0048,-0.0029,-0.0030,-0.0016,
7.0550,-0.0252,-0.0060,-0.0048,-0.0029,-0.0030,-0.0016,
7.0560,-0.0252,-0.0060,-0.0048,-0.0029,-0.0030,-0.0016,
7.0560,-0.0252,-0.0060,-0.0048,-0.0029,-0.0030,-0.0016,
7.0570,-0.0252,-0.0060,-0.0048,-0.0045,-0.0091,-0.0024,
7.0570,0.0083,0.0023,-0.0070,-0.0045,-0.0091,-0.0024,
7.1140,0.0083,0.0023,-0.0070,-0.0045,-0.0091,-0.0024,
7.1150,0.0083,0.0023,-0.0070,-0.0045,-0.0091,-0.0024,
7.1150,0.0083,0.0023,-0.0070,-0.0045,-0.0091,-0.0024,
7.1150,0.0083,0.0023,-0.0070,-0.0041,-0.0115,-0.0069,
7.1160,0.0178,-0.0113,0.0146,-0.0041,-0.0115,-0.0069,
7.1720,0.0178,-0.0113,0.0146,-0.0041,-0.0115,-0.0069,
7.1740,0.0178,-0.0113,0.0146,-0.0041,-0.0115,-0.0069,
7.1740,0.0178,-0.0113,0.0146,-0.0041,-0.0115,-0.0069,
7.1750,0.0178,-0.0113,0.0146,-0.0016,-0.0038,-0.0077,
7.1750,0.0355,0.0165,0.0021,-0.0016,-0.0038,-0.0077,
7.2300,0.0355,0.0165,0.0021,-0.0016,-0.0038,-0.0077,
7.2310,0.0355,0.0165,0.0021,-0.0016,-0.0038,-0.0077,
7.2320,0.0355,0.0165,0.0021,-0.0016,-0.0038,-0.0077,
7.2350,0.0355,0.0165,0.0021,-0.0041,0.0068,-0.0105,
7.2350,0.0373,-0.0071,0.0072,-0.0041,0.0068,-0.0105,
7.2890,0.0373,-0.0071,0.0072,-0.0041,0.0068,-0.0105,
7.2900,0.0373,-0.0071,0.0072,-0.0041,0.0068,-0.0105,
7.2900,0.0373,-0.0071,0.0072,-0.0041,0.0068,-0.0105,
7.2910,0.0373,-0.0071,0.0072,-0.0008,0.0100,-0.0109,
7.2920,-0.0163,0.0027,0.0220,-0.0008,0.0100,-0.0109,
7.3520,-0.0163,0.0027,0.0220,-0.0008,0.0100,-0.0109,
7.3530,-0.0163,0.0027,0.0220,-0.0008,0.0100,-0.0109,
7.3540,-0.0163,0.0027,0.0220,-0.0008,0.0100,-0.0109,
7.3540,-0.0208,-0.0035,0.0057,-0.0008,0.0100,-0.0109,
7.3550,-0.0208,-0.0035,0.0057,0.0053,0.0100,-0.0052,
7.4060,-0.0208,-0.0035,0.0057,0.0053,0.0100,-0.0052,
7.4070,-0.0208,-0.0035,0.0057,0.0053,0.0100,-0.0052,
7.4070,-0.0208,-0.0035,0.0057,0.0053,0.0100,-0.0052,
7.4080,-0.0208,-0.0035,0.0057,0.0122,0.0003,-0.0040,
7.4090,-0.0470,-0.0052,-0.0114,0.0122,0.0003,-0.0040,
7.4660,-0.0470,-0.0052,-0.0114,0.0122,0.0003,-0.0040,
7.4670,-0.0470,-0.0052,-0.0114,0.0122,0.0003,-0.0040,
7.4670,-0.0470,-0.0052,-0.0114,0.0122,0.0003,-0.0040,
7.4680,-0.0470,-0.0052,-0.0114,0.0045,-0.0205,-0.0007,
7.4690,-0.0184,0.0027,-0.0067,0.0045,-0.0205,-0.0007,
7.5240,-0.0184,0.0027,-0.0067,0.0045,-0.0205,-0.0007,
7.5250,-0.0184,0.0027,-0.0067,0.0045,-0.0205,-0.0007,
7.5250,-0.0184,0.0027,-0.0067,0.0045,-0.0205,-0.0007,
7.5260,-0.0184,0.0027,-0.0067,-0.0000,-0.0242,0.0001,
7.5270,-0.0181,0.0301,0.0135,-0.0000,-0.0242,0.0001,
7.5820,-0.0181,0.0301,0.0135,-0.0000,-0.0242,0.0001,
7.5830,-0.0181,0.0301,0.0135,-0.0000,-0.0242,0.0001,
7.5850,-0.0181,0.0301,0.0135,-0.0000,-0.0242,0.0001,
7.5850,-0.0181,0.0301,0.0135,-0.0012,-0.0616,0.0115,
7.5860,-0.0097,-0.0086,-0.0730,-0.0012,-0.0616,0.0115,
7.6410,-0.0097,-0.0086,-0.0730,-0.0012,-0.0616,0.0115,
7.6420,-0.0097,-0.0086,-0.0730,-0.0012,-0.0616,0.0115,
7.6420,-0.0097,-0.0086,-0.0730,-0.0012,-0.0616,0.0115,
7.6430,-0.0632,-0.0137,0.0047,-0.0012,-0.0616,0.0115,
7.6430,-0.0632,-0.0137,0.0047,0.0012,-0.0567,0.0094,
7.6990,-0.0632,-0.0137,0.0047,0.0012,-0.0567,0.0094,
7.7010,-0.0632,-0.0137,0.0047,0.0012,-0.0567,0.0094,
7.7010,-0.0632,-0.0137,0.0047,0.0012,-0.0567,0.0094,
7.7020,-0.0632,-0.0137,0.0047,0.0370,-0.1272,0.0245,
7.7030,-0.6581,-0.1986,0.1209,0.0370,-0.1272,0.0245,
7.7580,-0.6581,-0.1986,0.1209,0.0370,-0.1272,0.0245,
7.7590,-0.6581,-0.1986,0.1209,0.0370,-0.1272,0.0245,
7.7590,-0.6581,-0.1986,0.1209,0.0370,-0.1272,0.0245,
7.7600,-0.6581,-0.1986,0.1209,0.1116,-0.1667,0.0408,
7.7600,-0.4562,0.0543,0.2624,0.1116,-0.1667,0.0408,
7.8160,-0.4562,0.0543,0.2624,0.1116,-0.1667,0.0408,
7.8170,-0.4562,0.0543,0.2624,0.1116,-0.1667,0.0408,
7.8180,-0.4562,0.0543,0.2624,0.1116,-0.1667,0.0408,
7.8190,-0.4562,0.0543,0.2624,0.0924,-0.0690,0.0489,
7.8190,-0.3779,0.0053,0.4830,0.0924,-0.0690,0.0489,
7.8750,-0.3779,0.0053,0.4830,0.0924,-0.0690,0.0489,
7.8760,-0.3779,0.0053,0.4830,0.0924,-0.0690,0.0489,
7.8760,-0.3779,0.0053,0.4830,0.0924,-0.0690,0.0489,
7.8770,-0.3779,0.0053,0.4830,0.0313,0.0406,0.0497,
7.8770,-0.3197,0.2093,0.4553,0.0313,0.0406,0.0497,
7.9340,-0.3197,0.2093,0.4553,0.0313,0.0406,0.0497,
7.9350,-0.3197,0.2093,0.4553,0.0313,0.0406,0.0497,
7.9360,-0.3197,0.2093,0.4553,0.0313,0.0406,0.0497,
7.9360,-0.3197,0.2093,0.4553,0.0505,0.0622,0.0335,
7.9370,-0.0671,0.0284,0.1544,0.0505,0.0622,0.0335,
7.9920,-0.0671,0.0284,0.1544,0.0505,0.0622,0.0335,
7.9940,-0.0671,0.0284,0.1544,0.0505,0.0622,0.0335,
7.9940,-0.0671,0.0284,0.1544,0.0505,0.0622,0.0335,
7.9950,-0.0671,0.0284,0.1544,0.0855,0.1416,-0.0081,
7.9960,0.4088,-0.2204,-0.1228,0.0855,0.1416,-0.0081,
8.0500,0.4088,-0.2204,-0.1228,0.0855,0.1416,-0.0081,
8.0520,0.4088,-0.2204,-0.1228,0.0855,0.1416,-0.0081,
8.0520,0.4088,-0.2204,-0.1228,0.0855,0.1416,-0.0081,
8.0530,0.4088,-0.2204,-0.1228,0.1022,0.1705,-0.0244,
8.0540,0.3894,0.0164,-0.2781,0.1022,0.1705,-0.0244,
8.1090,0.3894,0.0164,-0.2781,0.1022,0.1705,-0.0244,
8.1100,0.3894,0.0164,-0.2781,0.1022,0.1705,-0.0244,
8.1110,0.3894,0.0164,-0.2781,0.1022,0.1705,-0.0244,
8.1110,0.3894,0.0164,-0.2781,0.0570,0.0764,-0.0044,
8.1120,0.2239,-0.0267,-0.2081,0.0570,0.0764,-0.0044,
8.1680,0.2239,-0.0267,-0.2081,0.0570,0.0764,-0.0044,
8.1690,0.2239,-0.0267,-0.2081,0.0570,0.0764,-0.0044,
8.1700,0.2239,-0.0267,-0.2081,0.0570,0.0764,-0.0044,
8.1700,0.2239,-0.0267,-0.2081,0.0611,0.0398,0.0143,
8.1710,0.4069,-0.0712,-0.0462,0.0611,0.0398,0.0143,
8.2260,0.4069,-0.0712,-0.0462,0.0611,0.0398,0.0143,
8.2280,0.4069,-0.0712,-0.0462,0.0611,0.0398,0.0143,
8.2280,0.4069,-0.0712,-0.0462,0.0611,0.0398,0.0143,
8.2290,0.4069,-0.0712,-0.0462,0.0607,0.0520,0.0131,
8.2290,0.3372,-0.0033,-0.1425,0.0607,0.0520,0.0131,
8.2850,0.3372,-0.0033,-0.1425,0.0607,0.0520,0.0131,
8.2860,0.3372,-0.0033,-0.1425,0.0607,0.0520,0.0131,
8.2870,0.3372,-0.0033,-0.1425,0.0607,0.0520,0.0131,
8.2870,0.3372,-0.0033,-0.1425,0.0570,0.0443,-0.0004,
8.2880,0.0123,-0.3416,0.1479,0.0570,0.0443,-0.0004,
8.3440,0.0123,-0.3416,0.1479,0.0570,0.0443,-0.0004,
8.3450,0.0123,-0.3416,0.1479,0.0570,0.0443,-0.0004,
8.3460,0.0123,-0.3416,0.1479,0.0570,0.0443,-0.0004,
8.3470,0.0123,-0.3416,0.1479,0.0892,-0.0152,0.0033,
8.3470,-0.4984,0.3525,0.4386,0.0892,-0.0152,0.0033,
8.4020,-0.4984,0.3525,0.4386,0.0892,-0.0152,0.0033,
8.4040,-0.4984,0.3525,0.4386,0.0892,-0.0152,0.0033,
8.4040,-0.4984,0.3525,0.4386,0.0892,-0.0152,0.0033,
8.4050,-0.4984,0.3525,0.4386,0.0379,-0.0368,-0.0134,
8.4050,-0.6608,-0.0144,0.1731,0.0379,-0.0368,-0.0134,
8.4610,-0.6608,-0.0144,0.1731,0.0379,-0.0368,-0.0134,
8.4620,-0.6608,-0.0144,0.1731,0.0379,-0.0368,-0.0134,
8.4630,-0.6608,-0.0144,0.1731,0.0379,-0.0368,-0.0134,
8.4630,-0.6608,-0.0144,0.1731,-0.0049,-0.0759,-0.0166,
8.4640,-0.0751,-0.0742,0.1052,-0.0049,-0.0759,-0.0166,
8.5190,-0.0751,-0.0742,0.1052,-0.0049,-0.0759,-0.0166,
8.5200,-0.0751,-0.0742,0.1052,-0.0049,-0.0759,-0.0166,
8.5210,-0.0751,-0.0742,0.1052,-0.0049,-0.0759,-0.0166,
8.5210,-0.0751,-0.0742,0.1052,0.0806,0.0174,0.0135,
8.5220,1.5109,-0.3720,0.1924,0.0806,0.0174,0.0135,
8.5780,1.5109,-0.3720,0.1924,0.0806,0.0174,0.0135,
8.5790,1.5109,-0.3720,0.1924,0.0806,0.0174,0.0135,
8.5800,1.5109,-0.3720,0.1924,0.0806,0.0174,0.0135,
8.5810,1.5109,-0.3720,0.1924,0.0594,0.1424,-0.0651,
8.5820,1.0230,1.0688,0.5544,0.0594,0.1424,-0.0651,
8.6360,1.0230,1.0688,0.5544,0.0594,0.1424,-0.0651,
8.6370,1.0230,1.0688,0.5544,0.0594,0.1424,-0.0651,
8.6380,1.0230,1.0688,0.5544,0.0594,0.1424,-0.0651,
8.6390,1.0230,1.0688,0.5544,-0.0896,-0.0038,-0.0459,
8.6400,0.1292,0.4762,1.1646,-0.0896,-0.0038,-0.0459,
8.6950,0.1292,0.4762,1.1646,-0.0896,-0.0038,-0.0459,
8.6960,0.1292,0.4762,1.1646,-0.0896,-0.0038,-0.0459,
8.6970,0.1292,0.4762,1.1646,-0.0896,-0.0038,-0.0459,
8.6970,0.1292,0.4762,1.1646,-0.0118,0.0532,-0.0134,
8.6980,0.5883,-0.6858,0.9215,-0.0118,0.0532,-0.0134,
8.7530,0.5883,-0.6858,0.9215,-0.0118,0.0532,-0.0134,
8.7550,0.5883,-0.6858,0.9215,-0.0118,0.0532,-0.0134,
8.7550,0.5883,-0.6858,0.9215,-0.0118,0.0532,-0.0134,
8.7560,0.5883,-0.6858,0.9215,0.0818,0.0463,0.0115,
8.7570,0.7072,-0.1671,1.1877,0.0818,0.0463,0.0115,
8.8120,0.7072,-0.1671,1.1877,0.0818,0.0463,0.0115,
8.8140,0.7072,-0.1671,1.1877,0.0818,0.0463,0.0115,
8.8140,0.7072,-0.1671,1.1877,0.0818,0.0463,0.0115,
8.8150,0.7072,-0.1671,1.1877,0.0346,-0.0042,-0.0317,
8.8150,0.8758,-0.2298,1.2961,0.0346,-0.0042,-0.0317,
8.8700,0.8758,-0.2298,1.2961,0.0346,-0.0042,-0.0317,
8.8720,0.8758,-0.2298,1.2961,0.0346,-0.0042,-0.0317,
8.8730,0.8758,-0.2298,1.2961,0.0346,-0.0042,-0.0317,
8.8730,0.8758,-0.2298,1.2961,-0.0147,-0.0466,-0.0846,
8.8740,0.7177,0.0050,1.4531,-0.0147,-0.0466,-0.0846,
8.9300,0.7177,0.0050,1.4531,-0.0147,-0.0466,-0.0846,
8.9310,0.7177,0.0050,1.4531,-0.0147,-0.0466,-0.0846,
8.9320,0.7177,0.0050,1.4531,-0.0147,-0.0466,-0.0846,
8.9330,0.7177,0.0050,1.4531,-0.1254,-0.1028,-0.1144,
8.9330,0.6889,0.3531,1.4486,-0.1254,-0.1028,-0.1144,
8.9880,0.6889,0.3531,1.4486,-0.1254,-0.1028,-0.1144,
8.9890,0.6889,0.3531,1.4486,-0.1254,-0.1028,-0.1144,
8.9900,0.6889,0.3531,1.4486,-0.1254,-0.1028,-0.1144,
8.9900,0.6889,0.3531,1.4486,-0.2220,-0.2693,-0.1099,
8.9910,0.8711,0.7699,1.3872,-0.2220,-0.2693,-0.1099,
9.0460,0.8711,0.7699,1.3872,-0.2220,-0.2693,-0.1099,
9.0470,0.8711,0.7699,1.3872,-0.2220,-0.2693,-0.1099,
9.0480,0.8711,0.7699,1.3872,-0.2220,-0.2693,-0.1099,
9.0490,0.8711,0.7699,1.3872,-0.2403,-0.3483,0.0640,
9.0490,1.8884,0.7032,1.6714,-0.2403,-0.3483,0.0640,
9.1050,1.8884,0.7032,1.6714,-0.2403,-0.3483,0.0640,
9.1070,1.8884,0.7032,1.6714,-0.2403,-0.3483,0.0640,
9.1070,1.8884,0.7032,1.6714,-0.2403,-0.3483,0.0640,
9.1080,1.8884,0.7032,1.6714,0.1462,0.2959,0.1845,
9.1090,1.6246,3.5448,-2.1669,0.1462,0.2959,0.1845,
9.1640,1.6246,3.5448,-2.1669,0.1462,0.2959,0.1845,
9.1650,1.6246,3.5448,-2.1669,0.1462,0.2959,0.1845,
9.1660,1.6246,3.5448,-2.1669,0.1462,0.2959,0.1845,
9.1660,1.6246,3.5448,-2.1669,-0.1417,0.2328,0.1491,
9.1670,-3.2121,-0.9914,-1.3858,-0.1417,0.2328,0.1491,
9.2220,-3.2121,-0.9914,-1.3858,-0.1417,0.2328,0.1491,
9.2230,-3.2121,-0.9914,-1.3858,-0.1417,0.2328,0.1491,
9.2240,-3.2121,-0.9914,-1.3858,-0.1417,0.2328,0.1491,
9.2250,-3.2121,-0.9914,-1.3858,0.2089,-0.1720,-0.0036,
9.2260,-0.4989,-0.5039,-1.1693,0.2089,-0.1720,-0.0036,
9.2810,-0.4989,-0.5039,-1.1693,0.2089,-0.1720,-0.0036,
9.2820,-0.4989,-0.5039,-1.1693,0.2089,-0.1720,-0.0036,
9.2830,-0.4989,-0.5039,-1.1693,0.2089,-0.1720,-0.0036,
9.2830,-0.4989,-0.5039,-1.1693,0.1967,0.0736,-0.1074,
9.2840,-1.4054,-0.6647,-0.8318,0.1967,0.0736,-0.1074,
9.3390,-1.4054,-0.6647,-0.8318,0.1967,0.0736,-0.1074,
9.3410,-1.4054,-0.6647,-0.8318,0.1967,0.0736,-0.1074,
9.3420,-1.4054,-0.6647,-0.8318,0.1967,0.0736,-0.1074,
9.3420,-1.4054,-0.6647,-0.8318,0.1608,-0.0759,0.0070,
9.3430,-0.5621,-0.5711,-0.4583,0.1608,-0.0759,0.0070,
9.3980,-0.5621,-0.5711,-0.4583,0.1608,-0.0759,0.0070,
9.3990,-0.5621,-0.5711,-0.4583,0.1608,-0.0759,0.0070,
9.3990,-0.5621,-0.5711,-0.4583,0.1608,-0.0759,0.0070,
9.4000,-0.5621,-0.5711,-0.4583,0.1189,-0.0323,-0.0708,
9.4000,-0.7943,-0.1980,-0.1761,0.1189,-0.0323,-0.0708,
9.4560,-0.7943,-0.1980,-0.1761,0.1189,-0.0323,-0.0708,
9.4580,-0.7943,-0.1980,-0.1761,0.1189,-0.0323,-0.0708,
9.4580,-0.7943,-0.1980,-0.1761,0.1189,-0.0323,-0.0708,
9.4590,-0.7943,-0.1980,-0.1761,0.0411,0.0422,-0.0329,
9.4590,-0.3011,-0.3190,-0.1111,0.0411,0.0422,-0.0329,
9.5150,-0.3011,-0.3190,-0.1111,0.0411,0.0422,-0.0329,
9.5160,-0.3011,-0.3190,-0.1111,0.0411,0.0422,-0.0329,
9.5170,-0.3011,-0.3190,-0.1111,0.0411,0.0422,-0.0329,
9.5170,-0.3011,-0.3190,-0.1111,0.0183,0.1139,-0.0394,
9.5180,-0.1292,-0.6214,0.0975,0.0183,0.1139,-0.0394,
9.5730,-0.1292,-0.6214,0.0975,0.0183,0.1139,-0.0394,
9.5750,-0.1292,-0.6214,0.0975,0.0183,0.1139,-0.0394,
9.5750,-0.1292,-0.6214,0.0975,0.0183,0.1139,-0.0394,
9.5760,-0.1292,-0.6214,0.0975,-0.0656,0.2503,-0.0944,
9.5770,-0.6202,-0.7833,0.1919,-0.0656,0.2503,-0.0944,
9.6330,-0.6202,-0.7833,0.1919,-0.0656,0.2503,-0.0944,
9.6340,-0.6202,-0.7833,0.1919,-0.0656,0.2503,-0.0944,
9.6340,-0.6202,-0.7833,0.1919,-0.0656,0.2503,-0.0944,
9.6350,-0.6202,-0.7833,0.1919,-0.0733,0.2031,-0.0358,
9.6360,-0.4663,-0.4167,0.3418,-0.0733,0.2031,-0.0358,
9.6910,-0.4663,-0.4167,0.3418,-0.0733,0.2031,-0.0358,
9.6920,-0.4663,-0.4167,0.3418,-0.0733,0.2031,-0.0358,
9.6930,-0.4663,-0.4167,0.3418,-0.0733,0.2031,-0.0358,
9.6930,-0.4663,-0.4167,0.3418,-0.1161,0.2564,-0.0586,
9.6940,-0.6119,-0.6291,0.8590,-0.1161,0.2564,-0.0586,
9.7500,-0.6119,-0.6291,0.8590,-0.1161,0.2564,-0.0586,
9.7510,-0.6119,-0.6291,0.8590,-0.1161,0.2564,-0.0586,
9.7520,-0.6119,-0.6291,0.8590,-0.1161,0.2564,-0.0586,
9.7520,-0.6119,-0.6291,0.8590,-0.1022,0.1909,0.0119,
9.7530,-0.8237,0.3023,0.7656,-0.1022,0.1909,0.0119,
9.8080,-0.8237,0.3023,0.7656,-0.1022,0.1909,0.0119,
9.8090,-0.8237,0.3023,0.7656,-0.1022,0.1909,0.0119,
9.8100,-0.8237,0.3023,0.7656,-0.1022,0.1909,0.0119,
9.8100,-0.8237,0.3023,0.7656,-0.0851,0.2129,0.0220,
9.8110,-0.5877,0.3737,1.4073,-0.0851,0.2129,0.0220,
9.8660,-0.5877,0.3737,1.4073,-0.0851,0.2129,0.0220,
9.8680,-0.5877,0.3737,1.4073,-0.0851,0.2129,0.0220,
9.8680,-0.5877,0.3737,1.4073,-0.0851,0.2129,0.0220,
9.8690,-0.5877,0.3737,1.4073,0.1413,0.0080,-0.0928,
9.8690,-1.8089,2.4435,-0.3580,0.1413,0.0080,-0.0928,
9.9250,-1.8089,2.4435,-0.3580,0.1413,0.0080,-0.0928,
9.9260,-1.8089,2.4435,-0.3580,0.1413,0.0080,-0.0928,
9.9270,-1.8089,2.4435,-0.3580,0.1413,0.0080,-0.0928,
9.9280,-1.8089,2.4435,-0.3580,0.1018,-0.2860,-0.0089,
9.9290,0.6444,0.7171,-1.0882,0.1018,-0.2860,-0.0089,
9.9840,0.6444,0.7171,-1.0882,0.1018,-0.2860,-0.0089,
9.9850,0.6444,0.7171,-1.0882,0.1018,-0.2860,-0.0089,
9.9860,0.6444,0.7171,-1.0882,0.1018,-0.2860,-0.0089,
9.9860,0.6444,0.7171,-1.0882,-0.1055,0.2833,-0.0793,
9.9870,0.4075,-0.8370,-0.6771,-0.1055,0.2833,-0.0793,
10.0420,0.4075,-0.8370,-0.6771,-0.1055,0.2833,-0.0793,
10.0440,0.4075,-0.8370,-0.6771,-0.1055,0.2833,-0.0793,
10.0440,0.4075,-0.8370,-0.6771,-0.1055,0.2833,-0.0793,
10.0450,0.4075,-0.8370,-0.6771,-0.0065,0.0671,0.0713,
10.0450,0.9532,-0.8600,-1.6544,-0.0065,0.0671,0.0713,
10.1010,0.9532,-0.8600,-1.6544,-0.0065,0.0671,0.0713,
10.1020,0.9532,-0.8600,-1.6544,-0.0065,0.0671,0.0713,
10.1030,0.9532,-0.8600,-1.6544,-0.0065,0.0671,0.0713,
10.1030,0.9532,-0.8600,-1.6544,-0.1063,0.0333,-0.0040,
10.1040,0.7652,0.3486,-1.4036,-0.1063,0.0333,-0.0040,
10.1590,0.7652,0.3486,-1.4036,-0.1063,0.0333,-0.0040,
10.1610,0.7652,0.3486,-1.4036,-0.1063,0.0333,-0.0040,
10.1610,0.7652,0.3486,-1.4036,-0.1063,0.0333,-0.0040,
10.1620,0.7652,0.3486,-1.4036,-0.1690,0.0304,0.0575,
10.1630,0.0638,0.1364,-0.9242,-0.1690,0.0304,0.0575,
10.2180,0.0638,0.1364,-0.9242,-0.1690,0.0304,0.0575,
10.2190,0.0638,0.1364,-0.9242,-0.1690,0.0304,0.0575,
10.2190,0.0638,0.1364,-0.9242,-0.1690,0.0304,0.0575,
10.2200,0.0638,0.1364,-0.9242,-0.2126,-0.0221,0.1137,
10.2210,0.4466,-0.8388,-0.2436,-0.2126,-0.0221,0.1137,
10.2770,0.4466,-0.8388,-0.2436,-0.2126,-0.0221,0.1137,
10.2780,0.4466,-0.8388,-0.2436,-0.2126,-0.0221,0.1137,
10.2790,0.4466,-0.8388,-0.2436,-0.2126,-0.0221,0.1137,
10.2790,0.4466,-0.8388,-0.2436,-0.0774,-0.0926,0.0664,
10.2800,0.5003,-0.5791,-0.1943,-0.0774,-0.0926,0.0664,
10.3350,0.5003,-0.5791,-0.1943,-0.0774,-0.0926,0.0664,
10.3360,0.5003,-0.5791,-0.1943,-0.0774,-0.0926,0.0664,
10.3370,0.5003,-0.5791,-0.1943,-0.0774,-0.0926,0.0664,
10.3370,0.5003,-0.5791,-0.1943,-0.0615,-0.1170,0.0453,
10.3380,0.4510,-0.2805,-0.0690,-0.0615,-0.1170,0.0453,
10.3940,0.4510,-0.2805,-0.0690,-0.0615,-0.1170,0.0453,
10.3960,0.4510,-0.2805,-0.0690,-0.0615,-0.1170,0.0453,
10.3960,0.4510,-0.2805,-0.0690,-0.0615,-0.1170,0.0453,
10.3970,0.4510,-0.2805,-0.0690,-0.0399,-0.2046,0.0184,
10.3970,0.3340,-0.1356,0.2897,-0.0399,-0.2046,0.0184,
10.4540,0.3340,-0.1356,0.2897,-0.0399,-0.2046,0.0184,
10.4560,0.3340,-0.1356,0.2897,-0.0399,-0.2046,0.0184,
10.4570,0.3340,-0.1356,0.2897,-0.0399,-0.2046,0.0184,
10.4580,0.3340,-0.1356,0.2897,-0.0969,-0.2261,-0.0358,
10.4600,0.5441,0.2872,0.4500,-0.0969,-0.2261,-0.0358,
10.5120,0.5441,0.2872,0.4500,-0.0969,-0.2261,-0.0358,
10.5140,0.5441,0.2872,0.4500,-0.0969,-0.2261,-0.0358,
10.5160,0.5441,0.2872,0.4500,-0.0969,-0.2261,-0.0358,
10.5170,0.6453,-0.1249,0.6029,-0.0969,-0.2261,-0.0358,
10.5190,0.6453,-0.1249,0.6029,-0.0701,-0.3023,-0.0366,
10.5710,0.6453,-0.1249,0.6029,-0.0701,-0.3023,-0.0366,
10.5730,0.6453,-0.1249,0.6029,-0.0701,-0.3023,-0.0366,
10.5740,0.6453,-0.1249,0.6029,-0.0701,-0.3023,-0.0366,
10.5750,0.6453,-0.1249,0.6029,-0.0057,-0.2632,-0.0517,
10.5770,0.7371,-0.0773,0.4584,-0.0057,-0.2632,-0.0517,
10.6290,0.7371,-0.0773,0.4584,-0.0057,-0.2632,-0.0517,
10.6310,0.7371,-0.0773,0.4584,-0.0057,-0.2632,-0.0517,
10.6320,0.7371,-0.0773,0.4584,-0.0057,-0.2632,-0.0517,
10.6340,0.7371,-0.0773,0.4584,-0.0330,-0.2375,-0.0887,
10.6360,1.1077,0.0762,0.4633,-0.0330,-0.2375,-0.0887,
10.6870,1.1077,0.0762,0.4633,-0.0330,-0.2375,-0.0887,
10.6900,1.1077,0.0762,0.4633,-0.0330,-0.2375,-0.0887,
10.6910,1.1077,0.0762,0.4633,-0.0330,-0.2375,-0.0887,
10.6920,1.1077,0.0762,0.4633,-0.0904,-0.2013,-0.0968,
10.6950,1.3661,0.2575,0.9847,-0.0904,-0.2013,-0.0968,
10.7460,1.3661,0.2575,0.9847,-0.0904,-0.2013,-0.0968,
10.7480,1.3661,0.2575,0.9847,-0.0904,-0.2013,-0.0968,
10.7490,1.3661,0.2575,0.9847,-0.0904,-0.2013,-0.0968,
10.7500,1.0627,0.8058,0.9143,-0.0904,-0.2013,-0.0968,
10.7530,1.0627,0.8058,0.9143,-0.0456,-0.1101,-0.0521,
10.8050,1.0627,0.8058,0.9143,-0.0456,-0.1101,-0.0521,
10.8070,1.0627,0.8058,0.9143,-0.0456,-0.1101,-0.0521,
10.8090,1.0627,0.8058,0.9143,-0.0456,-0.1101,-0.0521,
10.8100,-0.1137,1.9083,-1.6054,-0.0456,-0.1101,-0.0521,
10.8130,-0.1137,1.9083,-1.6054,0.0374,0.2063,0.0567,
10.8630,-0.1137,1.9083,-1.6054,0.0374,0.2063,0.0567,
10.8650,-0.1137,1.9083,-1.6054,0.0374,0.2063,0.0567,
10.8660,-0.1137,1.9083,-1.6054,0.0374,0.2063,0.0567,
10.8670,-0.1137,1.9083,-1.6054,0.0525,-0.0869,0.1153,
10.8700,-1.6225,-1.1110,-0.3434,0.0525,-0.0869,0.1153,
10.9220,-1.6225,-1.1110,-0.3434,0.0525,-0.0869,0.1153,
10.9250,-1.6225,-1.1110,-0.3434,0.0525,-0.0869,0.1153,
10.9260,-1.6225,-1.1110,-0.3434,0.0525,-0.0869,0.1153,
10.9270,-1.6225,-1.1110,-0.3434,0.1991,-0.2457,0.0485,
10.9280,-0.5335,-0.4620,-1.2964,0.1991,-0.2457,0.0485,
10.9810,-0.5335,-0.4620,-1.2964,0.1991,-0.2457,0.0485,
10.9830,-0.5335,-0.4620,-1.2964,0.1991,-0.2457,0.0485,
10.9840,-0.5335,-0.4620,-1.2964,0.1991,-0.2457,0.0485,
10.9850,-0.5335,-0.4620,-1.2964,0.2207,0.0308,-0.0183,
10.9870,-0.8362,0.2663,-0.7498,0.2207,0.0308,-0.0183,
11.0390,-0.8362,0.2663,-0.7498,0.2207,0.0308,-0.0183,
11.0410,-0.8362,0.2663,-0.7498,0.2207,0.0308,-0.0183,
11.0430,-0.8362,0.2663,-0.7498,0.2207,0.0308,-0.0183,
11.0440,-0.8362,0.2663,-0.7498,0.1967,0.0756,-0.0085,
11.0460,-0.0850,-0.5409,-0.6037,0.1967,0.0756,-0.0085,
11.0970,-0.0850,-0.5409,-0.6037,0.1967,0.0756,-0.0085,
11.0990,-0.0850,-0.5409,-0.6037,0.1967,0.0756,-0.0085,
11.1010,-0.0850,-0.5409,-0.6037,0.1967,0.0756,-0.0085,
11.1030,-0.0850,-0.5409,-0.6037,0.1393,0.1538,-0.1091,
11.1040,-0.3422,-0.1788,-0.0049,0.1393,0.1538,-0.1091,
11.1560,-0.3422,-0.1788,-0.0049,0.1393,0.1538,-0.1091,
11.1580,-0.3422,-0.1788,-0.0049,0.1393,0.1538,-0.1091,
11.1590,-0.3422,-0.1788,-0.0049,0.1393,0.1538,-0.1091,
11.1610,-0.3422,-0.1788,-0.0049,0.0085,0.1786,-0.1160,
11.1620,-1.0807,-0.3439,0.1251,0.0085,0.1786,-0.1160,
11.2150,-1.0807,-0.3439,0.1251,0.0085,0.1786,-0.1160,
11.2170,-1.0807,-0.3439,0.1251,0.0085,0.1786,-0.1160,
11.2180,-1.0807,-0.3439,0.1251,0.0085,0.1786,-0.1160,
11.2200,-1.0807,-0.3439,0.1251,0.0305,0.1400,-0.0903,
11.2210,-0.4986,-0.2016,0.2643,0.0305,0.1400,-0.0903,
11.2740,-0.4986,-0.2016,0.2643,0.0305,0.1400,-0.0903,
11.2760,-0.4986,-0.2016,0.2643,0.0305,0.1400,-0.0903,
11.2770,-0.4986,-0.2016,0.2643,0.0305,0.1400,-0.0903,
11.2780,-0.4986,-0.2016,0.2643,-0.0073,0.2291,-0.0781,
11.2790,-0.5195,-0.2062,0.2756,-0.0073,0.2291,-0.0781,
11.3310,-0.5195,-0.2062,0.2756,-0.0073,0.2291,-0.0781,
11.3340,-0.5195,-0.2062,0.2756,-0.0073,0.2291,-0.0781,
11.3350,-0.5195,-0.2062,0.2756,-0.0073,0.2291,-0.0781,
11.3370,-0.5195,-0.2062,0.2756,-0.0542,0.2467,-0.0464,
11.3380,-0.4507,-0.4734,0.5562,-0.0542,0.2467,-0.0464,
11.3900,-0.4507,-0.4734,0.5562,-0.0542,0.2467,-0.0464,
11.3920,-0.4507,-0.4734,0.5562,-0.0542,0.2467,-0.0464,
11.3940,-0.4507,-0.4734,0.5562,-0.0542,0.2467,-0.0464,
11.3950,-0.4507,-0.4734,0.5562,-0.0896,0.2747,-0.0231,
11.3970,-0.5812,-0.7324,0.9807,-0.0896,0.2747,-0.0231,
11.4490,-0.5812,-0.7324,0.9807,-0.0896,0.2747,-0.0231,
11.4510,-0.5812,-0.7324,0.9807,-0.0896,0.2747,-0.0231,
11.4530,-0.5812,-0.7324,0.9807,-0.0896,0.2747,-0.0231,
11.4540,-0.5812,-0.7324,0.9807,-0.0607,0.2173,0.0159,
11.4550,-0.8741,-0.0612,0.7374,-0.0607,0.2173,0.0159,
11.5060,-0.8741,-0.0612,0.7374,-0.0607,0.2173,0.0159,
11.5070,-0.8741,-0.0612,0.7374,-0.0607,0.2173,0.0159,
11.5070,-0.8741,-0.0612,0.7374,-0.0607,0.2173,0.0159,
11.5080,-0.8741,-0.0612,0.7374,-0.0806,0.2027,0.0432,
11.5080,-0.5209,0.4271,1.1273,-0.0806,0.2027,0.0432,
11.5650,-0.5209,0.4271,1.1273,-0.0806,0.2027,0.0432,
11.5660,-0.5209,0.4271,1.1273,-0.0806,0.2027,0.0432,
11.5670,-0.5209,0.4271,1.1273,-0.0806,0.2027,0.0432,
11.5680,-0.5209,0.4271,1.1273,-0.2093,0.2458,0.0693,
11.5680,-1.0543,0.6149,1.5139,-0.2093,0.2458,0.0693,
11.6240,-1.0543,0.6149,1.5139,-0.2093,0.2458,0.0693,
11.6270,-1.0543,0.6149,1.5139,-0.2093,0.2458,0.0693,
11.6290,-1.0543,0.6149,1.5139,-0.2093,0.2458,0.0693,
11.6300,-1.0543,0.6149,1.5139,0.0366,-0.0877,-0.0244,
11.6320,-1.6627,1.6029,-1.0054,0.0366,-0.0877,-0.0244,
11.6830,-1.6627,1.6029,-1.0054,0.0366,-0.0877,-0.0244,
11.6850,-1.6627,1.6029,-1.0054,0.0366,-0.0877,-0.0244,
11.6870,-1.6627,1.6029,-1.0054,0.0366,-0.0877,-0.0244,
11.6880,-1.6627,1.6029,-1.0054,-0.0448,-0.2665,0.0318,
11.6900,1.7104,-0.0913,-1.2598,-0.0448,-0.2665,0.0318,
11.7420,1.7104,-0.0913,-1.2598,-0.0448,-0.2665,0.0318,
11.7450,1.7104,-0.0913,-1.2598,-0.0448,-0.2665,0.0318,
11.7460,1.7104,-0.0913,-1.2598,-0.0448,-0.2665,0.0318,
11.7470,1.4907,0.0604,-1.5185,-0.0448,-0.2665,0.0318,
11.7490,1.4907,0.0604,-1.5185,-0.0045,0.3147,0.0151,
11.8010,1.4907,0.0604,-1.5185,-0.0045,0.3147,0.0151,
11.8030,1.4907,0.0604,-1.5185,-0.0045,0.3147,0.0151,
11.8040,1.4907,0.0604,-1.5185,-0.0045,0.3147,0.0151,
11.8050,0.1640,-0.1090,-0.9718,-0.0045,0.3147,0.0151,
11.8070,0.1640,-0.1090,-0.9718,-0.0762,0.1220,0.0884,
11.8590,0.1640,-0.1090,-0.9718,-0.0762,0.1220,0.0884,
11.8610,0.1640,-0.1090,-0.9718,-0.0762,0.1220,0.0884,
11.8630,0.1640,-0.1090,-0.9718,-0.0762,0.1220,0.0884,
11.8640,0.1640,-0.1090,-0.9718,-0.0994,0.0345,0.1039,
11.8660,0.1470,-0.3063,-0.4331,-0.0994,0.0345,0.1039,
11.9160,0.1470,-0.3063,-0.4331,-0.0994,0.0345,0.1039,
11.9170,0.1470,-0.3063,-0.4331,-0.0994,0.0345,0.1039,
11.9170,0.1470,-0.3063,-0.4331,-0.0994,0.0345,0.1039,
11.9170,0.1470,-0.3063,-0.4331,-0.0196,0.0068,0.1023,
11.9180,0.6654,-0.8442,-0.0043,-0.0196,0.0068,0.1023,
11.9750,0.6654,-0.8442,-0.0043,-0.0196,0.0068,0.1023,
11.9760,0.6654,-0.8442,-0.0043,-0.0196,0.0068,0.1023,
11.9770,0.6654,-0.8442,-0.0043,-0.0196,0.0068,0.1023,
11.9770,0.6654,-0.8442,-0.0043,0.0452,-0.0437,0.0754,
11.9780,0.8764,-0.4281,0.0668,0.0452,-0.0437,0.0754,
12.0350,0.8764,-0.4281,0.0668,0.0452,-0.0437,0.0754,
12.0380,0.8764,-0.4281,0.0668,0.0452,-0.0437,0.0754,
12.0390,0.8764,-0.4281,0.0668,0.0452,-0.0437,0.0754,
12.0400,0.8764,-0.4281,0.0668,0.0509,-0.0119,0.0493,
12.0410,0.7360,-0.0312,0.5730,0.0509,-0.0119,0.0493,
12.0930,0.7360,-0.0312,0.5730,0.0509,-0.0119,0.0493,
12.0950,0.7360,-0.0312,0.5730,0.0509,-0.0119,0.0493,
12.0960,0.7360,-0.0312,0.5730,0.0509,-0.0119,0.0493,
12.0970,0.7360,-0.0312,0.5730,-0.0505,-0.1158,-0.0537,
12.0980,-0.0746,0.0606,0.3893,-0.0505,-0.1158,-0.0537,
12.1520,-0.0746,0.0606,0.3893,-0.0505,-0.1158,-0.0537,
12.1540,-0.0746,0.0606,0.3893,-0.0505,-0.1158,-0.0537,
12.1550,-0.0746,0.0606,0.3893,-0.0505,-0.1158,-0.0537,
12.1570,-0.0746,0.0606,0.3893,-0.0904,-0.3255,-0.0541,
12.1580,0.2338,-0.1012,0.9907,-0.0904,-0.3255,-0.0541,
12.2100,0.2338,-0.1012,0.9907,-0.0904,-0.3255,-0.0541,
12.2120,0.2338,-0.1012,0.9907,-0.0904,-0.3255,-0.0541,
12.2140,0.2338,-0.1012,0.9907,-0.0904,-0.3255,-0.0541,
12.2150,0.2338,-0.1012,0.9907,-0.0379,-0.3870,-0.0276,
12.2170,0.8361,-0.4491,0.7073,-0.0379,-0.3870,-0.0276,
12.2690,0.8361,-0.4491,0.7073,-0.0379,-0.3870,-0.0276,
12.2710,0.8361,-0.4491,0.7073,-0.0379,-0.3870,-0.0276,
12.2730,0.8361,-0.4491,0.7073,-0.0379,-0.3870,-0.0276,
12.2740,0.8361,-0.4491,0.7073,0.0611,-0.3426,-0.0390,
12.2760,1.0947,-0.0491,0.7888,0.0611,-0.3426,-0.0390,
12.3270,1.0947,-0.0491,0.7888,0.0611,-0.3426,-0.0390,
12.3290,1.0947,-0.0491,0.7888,0.0611,-0.3426,-0.0390,
12.3310,1.0947,-0.0491,0.7888,0.0611,-0.3426,-0.0390,
12.3320,1.0947,-0.0491,0.7888,-0.0110,-0.2909,-0.0529,
12.3340,0.8591,0.4458,0.8693,-0.0110,-0.2909,-0.0529,
12.3860,0.8591,0.4458,0.8693,-0.0110,-0.2909,-0.0529,
12.3880,0.8591,0.4458,0.8693,-0.0110,-0.2909,-0.0529,
12.3900,0.8591,0.4458,0.8693,-0.0110,-0.2909,-0.0529,
12.3910,0.8591,0.4458,0.8693,0.1026,-0.3141,0.0404,
12.3920,1.1619,2.5949,-1.0104,0.1026,-0.3141,0.0404,
12.4460,1.1619,2.5949,-1.0104,0.1026,-0.3141,0.0404,
12.4490,1.1619,2.5949,-1.0104,0.1026,-0.3141,0.0404,
12.4500,1.1619,2.5949,-1.0104,0.1026,-0.3141,0.0404,
12.4510,1.1619,2.5949,-1.0104,-0.0676,0.1363,0.0656,
12.4540,-1.9718,0.6837,-1.7903,-0.0676,0.1363,0.0656,
12.5040,-1.9718,0.6837,-1.7903,-0.0676,0.1363,0.0656,
12.5060,-1.9718,0.6837,-1.7903,-0.0676,0.1363,0.0656,
12.5070,-1.9718,0.6837,-1.7903,-0.0676,0.1363,0.0656,
12.5080,-0.7037,-1.7694,-0.4520,-0.0676,0.1363,0.0656,
12.5100,-0.7037,-1.7694,-0.4520,0.1352,-0.5369,0.0632,
12.5620,-0.7037,-1.7694,-0.4520,0.1352,-0.5369,0.0632,
12.5640,-0.7037,-1.7694,-0.4520,0.1352,-0.5369,0.0632,
12.5650,-0.7037,-1.7694,-0.4520,0.1352,-0.5369,0.0632,
12.5670,-0.7037,-1.7694,-0.4520,0.1735,-0.2722,-0.0077,
12.5680,0.0577,0.2789,-0.8631,0.1735,-0.2722,-0.0077,
12.6200,0.0577,0.2789,-0.8631,0.1735,-0.2722,-0.0077,
12.6220,0.0577,0.2789,-0.8631,0.1735,-0.2722,-0.0077,
12.6230,0.0577,0.2789,-0.8631,0.1735,-0.2722,-0.0077,
12.6240,0.0577,0.2789,-0.8631,0.0912,-0.0751,-0.0036,
12.6250,-1.4355,0.5709,-0.7629,0.0912,-0.0751,-0.0036,
12.6790,-1.4355,0.5709,-0.7629,0.0912,-0.0751,-0.0036,
12.6820,-1.4355,0.5709,-0.7629,0.0912,-0.0751,-0.0036,
12.6830,-1.4355,0.5709,-0.7629,0.0912,-0.0751,-0.0036,
12.6850,-1.4355,0.5709,-0.7629,0.0440,-0.0453,0.0265,
12.6860,0.3889,-0.9447,-0.3107,0.0440,-0.0453,0.0265,
12.7380,0.3889,-0.9447,-0.3107,0.0440,-0.0453,0.0265,
12.7400,0.3889,-0.9447,-0.3107,0.0440,-0.0453,0.0265,
12.7410,0.3889,-0.9447,-0.3107,0.0440,-0.0453,0.0265,
12.7430,0.3889,-0.9447,-0.3107,0.1348,0.0842,-0.0215,
12.7440,-0.3555,-0.6795,0.2979,0.1348,0.0842,-0.0215,
12.7960,-0.3555,-0.6795,0.2979,0.1348,0.0842,-0.0215,
12.7980,-0.3555,-0.6795,0.2979,0.1348,0.0842,-0.0215,
12.7990,-0.3555,-0.6795,0.2979,0.1348,0.0842,-0.0215,
12.8000,-0.3555,-0.6795,0.2979,0.1246,0.1566,-0.0268,
12.8020,-0.2171,-0.4540,-0.0130,0.1246,0.1566,-0.0268,
12.8550,-0.2171,-0.4540,-0.0130,0.1246,0.1566,-0.0268,
12.8570,-0.2171,-0.4540,-0.0130,0.1246,0.1566,-0.0268,
12.8590,-0.2171,-0.4540,-0.0130,0.1246,0.1566,-0.0268,
12.8600,-0.2171,-0.4540,-0.0130,0.1014,0.2446,-0.0508,
12.8620,-0.4899,-0.0492,0.1123,0.1014,0.2446,-0.0508,
12.9140,-0.4899,-0.0492,0.1123,0.1014,0.2446,-0.0508,
12.9160,-0.4899,-0.0492,0.1123,0.1014,0.2446,-0.0508,
12.9170,-0.4899,-0.0492,0.1123,0.1014,0.2446,-0.0508,
12.9180,-0.4899,-0.0492,0.1123,0.0089,0.2699,-0.0460,
12.9200,-0.4740,-0.1534,0.5180,0.0089,0.2699,-0.0460,
12.9710,-0.4740,-0.1534,0.5180,0.0089,0.2699,-0.0460,
12.9740,-0.4740,-0.1534,0.5180,0.0089,0.2699,-0.0460,
12.9750,-0.4740,-0.1534,0.5180,0.0089,0.2699,-0.0460,
12.9770,-0.4740,-0.1534,0.5180,0.0163,0.2915,-0.0313,
12.9790,-0.2991,-0.3062,0.7303,0.0163,0.2915,-0.0313,
13.0300,-0.2991,-0.3062,0.7303,0.0163,0.2915,-0.0313,
13.0320,-0.2991,-0.3062,0.7303,0.0163,0.2915,-0.0313,
13.0340,-0.2991,-0.3062,0.7303,0.0163,0.2915,-0.0313,
13.0350,-0.2991,-0.3062,0.7303,-0.0228,0.3566,-0.0097,
13.0360,-0.3916,-0.2961,0.7606,-0.0228,0.3566,-0.0097,
13.0890,-0.3916,-0.2961,0.7606,-0.0228,0.3566,-0.0097,
13.0910,-0.3916,-0.2961,0.7606,-0.0228,0.3566,-0.0097,
13.0930,-0.3916,-0.2961,0.7606,-0.0228,0.3566,-0.0097,
13.0940,-0.3916,-0.2961,0.7606,-0.0709,0.4332,0.0123,
13.0950,-0.5710,-0.2331,1.0206,-0.0709,0.4332,0.0123,
13.1470,-0.5710,-0.2331,1.0206,-0.0709,0.4332,0.0123,
13.1490,-0.5710,-0.2331,1.0206,-0.0709,0.4332,0.0123,
13.1500,-0.5710,-0.2331,1.0206,-0.0709,0.4332,0.0123,
13.1520,-0.5710,-0.2331,1.0206,-0.1482,0.4772,0.0428,
13.1540,-0.6558,0.2186,1.3544,-0.1482,0.4772,0.0428,
13.2050,-0.6558,0.2186,1.3544,-0.1482,0.4772,0.0428,
13.2060,-0.6558,0.2186,1.3544,-0.1482,0.4772,0.0428,
13.2070,-0.6558,0.2186,1.3544,-0.1482,0.4772,0.0428,
13.2070,-0.6558,0.2186,1.3544,0.0037,0.3236,-0.1058,
13.2070,-1.6420,2.6176,-0.1303,0.0037,0.3236,-0.1058,
13.2640,-1.6420,2.6176,-0.1303,0.0037,0.3236,-0.1058,
13.2650,-1.6420,2.6176,-0.1303,0.0037,0.3236,-0.1058,
13.2660,-1.6420,2.6176,-0.1303,0.0037,0.3236,-0.1058,
13.2660,-1.6420,2.6176,-0.1303,0.0676,-0.1166,-0.0789,
13.2670,0.6784,0.9278,-2.5627,0.0676,-0.1166,-0.0789,
13.3230,0.6784,0.9278,-2.5627,0.0676,-0.1166,-0.0789,
13.3260,0.6784,0.9278,-2.5627,0.0676,-0.1166,-0.0789,
13.3270,0.6784,0.9278,-2.5627,0.0676,-0.1166,-0.0789,
13.3280,0.6784,0.9278,-2.5627,-0.2024,0.4670,-0.1160,
13.3300,1.4422,-1.8883,-0.3352,-0.2024,0.4670,-0.1160,
13.3810,1.4422,-1.8883,-0.3352,-0.2024,0.4670,-0.1160,
13.3820,1.4422,-1.8883,-0.3352,-0.2024,0.4670,-0.1160,
13.3830,1.4422,-1.8883,-0.3352,-0.2024,0.4670,-0.1160,
13.3830,1.4422,-1.8883,-0.3352,0.1669,0.3244,0.0355,
13.3840,-0.4197,0.0606,-1.4185,0.1669,0.3244,0.0355,
13.4410,-0.4197,0.0606,-1.4185,0.1669,0.3244,0.0355,
13.4420,-0.4197,0.0606,-1.4185,0.1669,0.3244,0.0355,
13.4430,-0.4197,0.0606,-1.4185,0.1669,0.3244,0.0355,
13.4430,-0.4197,0.0606,-1.4185,-0.1344,-0.0551,0.0420,
13.4440,0.6778,0.6844,-1.1555,-0.1344,-0.0551,0.0420,
13.4990,0.6778,0.6844,-1.1555,-0.1344,-0.0551,0.0420,
13.5000,0.6778,0.6844,-1.1555,-0.1344,-0.0551,0.0420,
13.5010,0.6778,0.6844,-1.1555,-0.1344,-0.0551,0.0420,
13.5010,0.6778,0.6844,-1.1555,-0.1914,0.0569,0.0774,
13.5010,0.3184,-0.8473,-0.2354,-0.1914,0.0569,0.0774,
13.5580,0.3184,-0.8473,-0.2354,-0.1914,0.0569,0.0774,
13.5600,0.3184,-0.8473,-0.2354,-0.1914,0.0569,0.0774,
13.5610,0.3184,-0.8473,-0.2354,-0.1914,0.0569,0.0774,
13.5620,0.3184,-0.8473,-0.2354,-0.0253,-0.0852,0.0864,
13.5640,0.3231,-0.8329,0.0726,-0.0253,-0.0852,0.0864,
13.6160,0.3231,-0.8329,0.0726,-0.0253,-0.0852,0.0864,
13.6180,0.3231,-0.8329,0.0726,-0.0253,-0.0852,0.0864,
13.6190,0.3231,-0.8329,0.0726,-0.0253,-0.0852,0.0864,
13.6200,0.3231,-0.8329,0.0726,0.0631,-0.2066,0.0603,
13.6220,0.5629,0.1450,-0.1076,0.0631,-0.2066,0.0603,
13.6750,0.5629,0.1450,-0.1076,0.0631,-0.2066,0.0603,
13.6770,0.5629,0.1450,-0.1076,0.0631,-0.2066,0.0603,
13.6780,0.5629,0.1450,-0.1076,0.0631,-0.2066,0.0603,
13.6790,0.5629,0.1450,-0.1076,-0.0326,-0.2664,0.0025,
13.6810,0.7319,-0.0630,0.2769,-0.0326,-0.2664,0.0025,
13.7340,0.7319,-0.0630,0.2769,-0.0326,-0.2664,0.0025,
13.7360,0.7319,-0.0630,0.2769,-0.0326,-0.2664,0.0025,
13.7370,0.7319,-0.0630,0.2769,-0.0326,-0.2664,0.0025,
13.7380,0.7319,-0.0630,0.2769,-0.0224,-0.2253,-0.0297,
13.7390,0.6146,-0.4825,0.7346,-0.0224,-0.2253,-0.0297,
13.7920,0.6146,-0.4825,0.7346,-0.0224,-0.2253,-0.0297,
13.7950,0.6146,-0.4825,0.7346,-0.0224,-0.2253,-0.0297,
13.7960,0.6146,-0.4825,0.7346,-0.0224,-0.2253,-0.0297,
13.7970,0.6146,-0.4825,0.7346,-0.0012,-0.3235,-0.0610,
13.7990,0.6729,0.0132,0.6783,-0.0012,-0.3235,-0.0610,
13.8510,0.6729,0.0132,0.6783,-0.0012,-0.3235,-0.0610,
13.8530,0.6729,0.0132,0.6783,-0.0012,-0.3235,-0.0610,
13.8540,0.6729,0.0132,0.6783,-0.0012,-0.3235,-0.0610,
13.8550,0.6729,0.0132,0.6783,-0.0468,-0.3373,-0.0704,
13.8580,0.9859,0.0253,0.9298,-0.0468,-0.3373,-0.0704,
13.9090,0.9859,0.0253,0.9298,-0.0468,-0.3373,-0.0704,
13.9110,0.9859,0.0253,0.9298,-0.0468,-0.3373,-0.0704,
13.9140,0.9859,0.0253,0.9298,-0.0468,-0.3373,-0.0704,
13.9160,1.3759,0.1170,1.0431,-0.0468,-0.3373,-0.0704,
13.9190,1.3759,0.1170,1.0431,-0.0741,-0.3137,-0.0879,
13.9350,1.3759,0.1170,1.0431,-0.0741,-0.3137,-0.0879,
13.9860,1.3759,0.1170,1.0431,-0.0741,-0.3137,-0.0879,
13.9870,1.3759,0.1170,1.0431,-0.0741,-0.3137,-0.0879,
13.9880,1.3759,0.1170,1.0431,-0.0741,-0.3137,-0.0879,
13.9880,1.3759,0.1170,1.0431,-0.0090,-0.2428,-0.1083,
13.9890,1.0543,1.0015,0.7306,-0.0090,-0.2428,-0.1083,
14.0460,1.0543,1.0015,0.7306,-0.0090,-0.2428,-0.1083,
14.0480,1.0543,1.0015,0.7306,-0.0090,-0.2428,-0.1083,
14.0490,1.0543,1.0015,0.7306,-0.0090,-0.2428,-0.1083,
14.0500,1.0543,1.0015,0.7306,0.0619,0.0430,0.0188,
14.0520,-0.0053,2.3912,-1.8380,0.0619,0.0430,0.0188,
14.1050,-0.0053,2.3912,-1.8380,0.0619,0.0430,0.0188,
14.1070,-0.0053,2.3912,-1.8380,0.0619,0.0430,0.0188,
14.1080,-0.0053,2.3912,-1.8380,0.0619,0.0430,0.0188,
14.1090,-0.0053,2.3912,-1.8380,0.0969,-0.2546,0.0892,
14.1110,-1.4649,-0.8258,-0.2818,0.0969,-0.2546,0.0892,
14.1630,-1.4649,-0.8258,-0.2818,0.0969,-0.2546,0.0892,
14.1650,-1.4649,-0.8258,-0.2818,0.0969,-0.2546,0.0892,
14.1660,-1.4649,-0.8258,-0.2818,0.0969,-0.2546,0.0892,
14.1670,-1.4649,-0.8258,-0.2818,0.2174,-0.4501,0.0713,
14.1690,0.0518,-1.0857,-1.1358,0.2174,-0.4501,0.0713,
14.2220,0.0518,-1.0857,-1.1358,0.2174,-0.4501,0.0713,
14.2240,0.0518,-1.0857,-1.1358,0.2174,-0.4501,0.0713,
14.2250,0.0518,-1.0857,-1.1358,0.2174,-0.4501,0.0713,
14.2270,0.0518,-1.0857,-1.1358,0.2016,0.0654,0.0001,
14.2280,-0.8185,0.3620,-0.5657,0.2016,0.0654,0.0001,
14.2790,-0.8185,0.3620,-0.5657,0.2016,0.0654,0.0001,
14.2800,-0.8185,0.3620,-0.5657,0.2016,0.0654,0.0001,
14.2800,-0.8185,0.3620,-0.5657,0.2016,0.0654,0.0001,
14.2800,-0.8185,0.3620,-0.5657,0.0130,0.0178,0.0241,
14.2810,-0.6048,0.0309,-0.6154,0.0130,0.0178,0.0241,
14.3380,-0.6048,0.0309,-0.6154,0.0130,0.0178,0.0241,
14.3390,-0.6048,0.0309,-0.6154,0.0130,0.0178,0.0241,
14.3390,-0.6048,0.0309,-0.6154,0.0130,0.0178,0.0241,
14.3400,-0.6048,0.0309,-0.6154,-0.0289,0.0349,-0.0195,
14.3410,-0.5254,-0.6390,0.3030,-0.0289,0.0349,-0.0195,
14.3980,-0.5254,-0.6390,0.3030,-0.0289,0.0349,-0.0195,
14.4000,-0.5254,-0.6390,0.3030,-0.0289,0.0349,-0.0195,
14.4010,-0.5254,-0.6390,0.3030,-0.0289,0.0349,-0.0195,
14.4020,-0.5254,-0.6390,0.3030,0.0480,0.0813,-0.0020,
14.4030,-0.0764,-0.2142,0.1272,0.0480,0.0813,-0.0020,
14.4560,-0.0764,-0.2142,0.1272,0.0480,0.0813,-0.0020,
14.4580,-0.0764,-0.2142,0.1272,0.0480,0.0813,-0.0020,
14.4590,-0.0764,-0.2142,0.1272,0.0480,0.0813,-0.0020,
14.4610,-0.0764,-0.2142,0.1272,0.0370,0.1668,-0.0073,
14.4620,-0.4467,-0.4089,0.3585,0.0370,0.1668,-0.0073,
14.5140,-0.4467,-0.4089,0.3585,0.0370,0.1668,-0.0073,
14.5160,-0.4467,-0.4089,0.3585,0.0370,0.1668,-0.0073,
14.5170,-0.4467,-0.4089,0.3585,0.0370,0.1668,-0.0073,
14.5190,-0.3216,-0.3090,0.4828,0.0370,0.1668,-0.0073,
14.5210,-0.3216,-0.3090,0.4828,0.0892,0.1856,-0.0174,
14.5730,-0.3216,-0.3090,0.4828,0.0892,0.1856,-0.0174,
14.5750,-0.3216,-0.3090,0.4828,0.0892,0.1856,-0.0174,
14.5770,-0.3216,-0.3090,0.4828,0.0892,0.1856,-0.0174,
14.5780,-0.7402,-0.0292,0.5924,0.0892,0.1856,-0.0174,
14.5790,-0.7402,-0.0292,0.5924,0.0346,0.2080,-0.0602,
14.6310,-0.7402,-0.0292,0.5924,0.0346,0.2080,-0.0602,
14.6340,-0.7402,-0.0292,0.5924,0.0346,0.2080,-0.0602,
14.6350,-0.7402,-0.0292,0.5924,0.0346,0.2080,-0.0602,
14.6360,-0.7402,-0.0292,0.5924,-0.0086,0.1721,-0.0374,
14.6380,-0.6604,-0.2421,0.8531,-0.0086,0.1721,-0.0374,
14.6900,-0.6604,-0.2421,0.8531,-0.0086,0.1721,-0.0374,
14.6910,-0.6604,-0.2421,0.8531,-0.0086,0.1721,-0.0374,
14.6930,-0.6604,-0.2421,0.8531,-0.0086,0.1721,-0.0374,
14.6940,-0.6604,-0.2421,0.8531,-0.0012,0.1709,-0.0207,
14.6950,-0.4453,-0.1546,1.0007,-0.0012,0.1709,-0.0207,
14.7500,-0.4453,-0.1546,1.0007,-0.0012,0.1709,-0.0207,
14.7520,-0.4453,-0.1546,1.0007,-0.0012,0.1709,-0.0207,
14.7540,-0.4453,-0.1546,1.0007,-0.0012,0.1709,-0.0207,
14.7550,-0.4453,-0.1546,1.0007,0.0236,0.2576,0.0029,
14.7570,-0.1757,-0.2655,1.0251,0.0236,0.2576,0.0029,
14.8070,-0.1770,-0.1827,1.3442,0.0236,0.2576,0.0029,
14.8130,-0.1770,-0.1827,1.3442,0.0236,0.2576,0.0029,
14.8140,-0.1770,-0.1827,1.3442,0.0236,0.2576,0.0029,
14.8140,-0.1770,-0.1827,1.3442,0.0236,0.2576,0.0029,
14.8140,-0.1770,-0.1827,1.3442,-0.0163,0.4075,0.0172,
14.8660,-0.1770,-0.1827,1.3442,-0.0163,0.4075,0.0172,
14.8680,-0.1770,-0.1827,1.3442,-0.0163,0.4075,0.0172,
14.8690,-0.1770,-0.1827,1.3442,-0.0163,0.4075,0.0172,
14.8700,-1.4398,1.6513,0.7445,-0.0163,0.4075,0.0172,
14.8730,-1.4398,1.6513,0.7445,0.0061,0.4641,-0.0667,
14.9260,-1.4398,1.6513,0.7445,0.0061,0.4641,-0.0667,
14.9310,-1.4398,1.6513,0.7445,0.0061,0.4641,-0.0667,
14.9320,-1.4398,1.6513,0.7445,0.0061,0.4641,-0.0667,
14.9330,-1.4398,1.6513,0.7445,0.0916,-0.0343,-0.0977,
14.9340,-0.8954,2.7192,-2.4669,0.0916,-0.0343,-0.0977,
14.9830,-0.8954,2.7192,-2.4669,0.0916,-0.0343,-0.0977,
14.9850,-0.8954,2.7192,-2.4669,0.0916,-0.0343,-0.0977,
14.9860,-0.8954,2.7192,-2.4669,0.0916,-0.0343,-0.0977,
14.9870,-0.8954,2.7192,-2.4669,-0.1865,0.2674,-0.0517,
14.9890,2.2795,-1.6318,-0.5966,-0.1865,0.2674,-0.0517,
15.0420,2.2795,-1.6318,-0.5966,-0.1865,0.2674,-0.0517,
15.0440,2.2795,-1.6318,-0.5966,-0.1865,0.2674,-0.0517,
15.0450,2.2795,-1.6318,-0.5966,-0.1865,0.2674,-0.0517,
15.0460,-0.6641,-0.9577,-0.7689,-0.1865,0.2674,-0.0517,
15.0480,-0.6641,-0.9577,-0.7689,0.1152,0.4963,0.0155,
15.1000,-0.6641,-0.9577,-0.7689,0.1152,0.4963,0.0155,
15.1020,-0.6641,-0.9577,-0.7689,0.1152,0.4963,0.0155,
15.1040,-0.6641,-0.9577,-0.7689,0.1152,0.4963,0.0155,
15.1050,-0.6641,-0.9577,-0.7689,0.0379,-0.1516,0.0827,
15.1070,0.7659,0.3826,-1.5435,0.0379,-0.1516,0.0827,
15.1580,0.7659,0.3826,-1.5435,0.0379,-0.1516,0.0827,
15.1600,0.7659,0.3826,-1.5435,0.0379,-0.1516,0.0827,
15.1620,0.7659,0.3826,-1.5435,0.0379,-0.1516,0.0827,
15.1630,0.7659,0.3826,-1.5435,-0.1421,-0.0189,0.0652,
15.1650,0.3413,-0.1259,-0.7872,-0.1421,-0.0189,0.0652,
15.2180,0.3413,-0.1259,-0.7872,-0.1421,-0.0189,0.0652,
15.2210,0.3413,-0.1259,-0.7872,-0.1421,-0.0189,0.0652,
15.2220,0.3413,-0.1259,-0.7872,-0.1421,-0.0189,0.0652,
15.2230,0.3413,-0.1259,-0.7872,-0.0982,-0.0177,0.1157,
15.2260,0.8755,-0.6498,-0.1821,-0.0982,-0.0177,0.1157,
15.2750,0.8755,-0.6498,-0.1821,-0.0982,-0.0177,0.1157,
15.2770,0.8755,-0.6498,-0.1821,-0.0982,-0.0177,0.1157,
15.2780,0.8755,-0.6498,-0.1821,-0.0982,-0.0177,0.1157,
15.2800,0.8755,-0.6498,-0.1821,-0.0477,0.0052,0.0884,
15.2810,0.6142,-0.2159,-0.2259,-0.0477,0.0052,0.0884,
15.3350,0.6142,-0.2159,-0.2259,-0.0477,0.0052,0.0884,
15.3370,0.6142,-0.2159,-0.2259,-0.0477,0.0052,0.0884,
15.3380,0.6142,-0.2159,-0.2259,-0.0477,0.0052,0.0884,
15.3390,0.6142,-0.2159,-0.2259,-0.0749,-0.0665,0.0392,
15.3400,-0.0767,-0.1066,-0.1164,-0.0749,-0.0665,0.0392,
15.3940,-0.0767,-0.1066,-0.1164,-0.0749,-0.0665,0.0392,
15.3960,-0.0767,-0.1066,-0.1164,-0.0749,-0.0665,0.0392,
15.3970,-0.0767,-0.1066,-0.1164,-0.0749,-0.0665,0.0392,
15.3980,-0.0767,-0.1066,-0.1164,-0.0941,-0.2383,0.0339,
15.4000,0.2678,0.0060,0.1964,-0.0941,-0.2383,0.0339,
15.4510,0.2678,0.0060,0.1964,-0.0941,-0.2383,0.0339,
15.4530,0.2678,0.0060,0.1964,-0.0941,-0.2383,0.0339,
15.4540,0.2678,0.0060,0.1964,-0.0941,-0.2383,0.0339,
15.4570,0.2678,0.0060,0.1964,-0.0937,-0.2742,0.0290,
15.4580,0.6103,-0.1924,0.5341,-0.0937,-0.2742,0.0290,
15.5100,0.6103,-0.1924,0.5341,-0.0937,-0.2742,0.0290,
15.5120,0.6103,-0.1924,0.5341,-0.0937,-0.2742,0.0290,
15.5140,0.6103,-0.1924,0.5341,-0.0937,-0.2742,0.0290,
15.5150,0.6103,-0.1924,0.5341,-0.0330,-0.2999,0.0050,
15.5160,0.7787,-0.0852,0.5750,-0.0330,-0.2999,0.0050,
15.5680,0.7787,-0.0852,0.5750,-0.0330,-0.2999,0.0050,
15.5710,0.7787,-0.0852,0.5750,-0.0330,-0.2999,0.0050,
15.5720,0.7787,-0.0852,0.5750,-0.0330,-0.2999,0.0050,
15.5730,0.7787,-0.0852,0.5750,-0.0139,-0.2726,-0.0252,
15.5750,1.0034,-0.0790,0.6795,-0.0139,-0.2726,-0.0252,
15.6270,1.0034,-0.0790,0.6795,-0.0139,-0.2726,-0.0252,
15.6290,1.0034,-0.0790,0.6795,-0.0139,-0.2726,-0.0252,
15.6300,1.0034,-0.0790,0.6795,-0.0139,-0.2726,-0.0252,
15.6320,1.0034,-0.0790,0.6795,0.0338,-0.2107,-0.0398,
15.6330,0.7989,-0.5440,0.6366,0.0338,-0.2107,-0.0398,
15.6860,0.7989,-0.5440,0.6366,0.0338,-0.2107,-0.0398,
15.6890,0.7989,-0.5440,0.6366,0.0338,-0.2107,-0.0398,
15.6900,0.7989,-0.5440,0.6366,0.0338,-0.2107,-0.0398,
15.6910,0.7989,-0.5440,0.6366,0.0016,-0.2827,-0.1290,
15.6930,0.7694,0.4284,0.9197,0.0016,-0.2827,-0.1290,
15.7450,0.7694,0.4284,0.9197,0.0016,-0.2827,-0.1290,
15.7470,0.7694,0.4284,0.9197,0.0016,-0.2827,-0.1290,
15.7490,0.7694,0.4284,0.9197,0.0016,-0.2827,-0.1290,
15.7500,0.7694,0.4284,0.9197,-0.0827,-0.4188,-0.1763,
15.7520,0.8316,0.4356,1.5716,-0.0827,-0.4188,-0.1763,
15.8030,0.8316,0.4356,1.5716,-0.0827,-0.4188,-0.1763,
15.8050,0.8316,0.4356,1.5716,-0.0827,-0.4188,-0.1763,
15.8060,0.8316,0.4356,1.5716,-0.0827,-0.4188,-0.1763,
15.8070,0.8316,0.4356,1.5716,0.2362,-0.1239,-0.1669,
15.8090,1.4501,3.4362,-1.6523,0.2362,-0.1239,-0.1669,
15.8610,1.4501,3.4362,-1.6523,0.2362,-0.1239,-0.1669,
15.8640,1.4501,3.4362,-1.6523,0.2362,-0.1239,-0.1669,
15.8650,1.4501,3.4362,-1.6523,0.2362,-0.1239,-0.1669,
15.8660,1.4501,3.4362,-1.6523,0.0366,-0.0364,-0.0256,
15.8680,-1.6088,-1.2395,0.3457,0.0366,-0.0364,-0.0256,
15.9200,-1.6088,-1.2395,0.3457,0.0366,-0.0364,-0.0256,
15.9230,-1.6088,-1.2395,0.3457,0.0366,-0.0364,-0.0256,
15.9240,-1.6088,-1.2395,0.3457,0.0366,-0.0364,-0.0256,
15.9250,-1.6088,-1.2395,0.3457,0.2231,-0.4110,-0.0989,
15.9270,-0.4797,-0.5787,-0.7338,0.2231,-0.4110,-0.0989,
15.9490,-0.4797,-0.5787,-0.7338,0.1861,-0.1659,-0.0887,
15.9520,-1.8690,-0.2305,-1.0344,0.1861,-0.1659,-0.0887,
15.9530,-1.8690,-0.2305,-1.0344,0.1861,-0.1659,-0.0887,
15.9990,-0.0105,-0.1780,-0.6898,0.1861,-0.1659,-0.0887,
16.0030,-0.0105,-0.1780,-0.6898,0.1861,-0.1659,-0.0887,
16.0050,-0.0105,-0.1780,-0.6898,0.1861,-0.1659,-0.0887,
16.0060,-0.0105,-0.1780,-0.6898,0.1861,-0.1659,-0.0887,
16.0080,-0.0105,-0.1780,-0.6898,0.0749,-0.2213,-0.0484,
16.0570,-0.0105,-0.1780,-0.6898,0.0749,-0.2213,-0.0484,
16.0590,-0.0105,-0.1780,-0.6898,0.0749,-0.2213,-0.0484,
16.0600,-0.0105,-0.1780,-0.6898,0.0749,-0.2213,-0.0484,
16.0620,-0.0105,-0.1780,-0.6898,0.0448,0.0316,-0.0851,
16.0630,-0.1533,-0.7635,-0.2069,0.0448,0.0316,-0.0851,
16.1150,-0.1533,-0.7635,-0.2069,0.0448,0.0316,-0.0851,
16.1170,-0.1533,-0.7635,-0.2069,0.0448,0.0316,-0.0851,
16.1190,-0.1533,-0.7635,-0.2069,0.0448,0.0316,-0.0851,
16.1200,-0.1533,-0.7635,-0.2069,0.0521,0.0683,-0.0077,
16.1220,-0.8861,-0.4411,-0.1125,0.0521,0.0683,-0.0077,
16.1740,-0.8861,-0.4411,-0.1125,0.0521,0.0683,-0.0077,
16.1760,-0.8861,-0.4411,-0.1125,0.0521,0.0683,-0.0077,
16.1780,-0.8861,-0.4411,-0.1125,0.0521,0.0683,-0.0077,
16.1790,-0.4266,0.0706,-0.0178,0.0521,0.0683,-0.0077,
16.1810,-0.4266,0.0706,-0.0178,0.0464,0.0153,0.0428,
16.2330,-0.4266,0.0706,-0.0178,0.0464,0.0153,0.0428,
16.2350,-0.4266,0.0706,-0.0178,0.0464,0.0153,0.0428,
16.2360,-0.4266,0.0706,-0.0178,0.0464,0.0153,0.0428,
16.2370,-0.4266,0.0706,-0.0178,-0.0167,0.0850,0.0339,
16.2390,-0.4251,-0.1537,0.3142,-0.0167,0.0850,0.0339,
16.2910,-0.4251,-0.1537,0.3142,-0.0167,0.0850,0.0339,
16.2940,-0.4251,-0.1537,0.3142,-0.0167,0.0850,0.0339,
16.2950,-0.4251,-0.1537,0.3142,-0.0167,0.0850,0.0339,
16.2960,-0.4251,-0.1537,0.3142,0.0187,0.1204,0.0672,
16.2980,-0.1834,-0.1342,0.6550,0.0187,0.1204,0.0672,
16.3500,-0.1834,-0.1342,0.6550,0.0187,0.1204,0.0672,
16.3520,-0.1834,-0.1342,0.6550,0.0187,0.1204,0.0672,
16.3530,-0.1834,-0.1342,0.6550,0.0187,0.1204,0.0672,
16.3550,-0.1834,-0.1342,0.6550,0.0269,0.2609,0.0595,
16.3570,-0.1698,-0.0061,0.4175,0.0269,0.2609,0.0595,
16.4090,-0.1698,-0.0061,0.4175,0.0269,0.2609,0.0595,
16.4110,-0.1698,-0.0061,0.4175,0.0269,0.2609,0.0595,
16.4120,-0.1698,-0.0061,0.4175,0.0269,0.2609,0.0595,
16.4140,-0.1698,-0.0061,0.4175,-0.0656,0.2825,0.0518,
16.4150,-0.7073,-0.3760,0.8989,-0.0656,0.2825,0.0518,
16.4670,-0.7073,-0.3760,0.8989,-0.0656,0.2825,0.0518,
16.4690,-0.7073,-0.3760,0.8989,-0.0656,0.2825,0.0518,
16.4700,-0.7073,-0.3760,0.8989,-0.0656,0.2825,0.0518,
16.4710,-0.7073,-0.3760,0.8989,-0.0440,0.2784,0.0917,
16.4730,-0.5425,-0.0790,0.9643,-0.0440,0.2784,0.0917,
16.5250,-0.5425,-0.0790,0.9643,-0.0440,0.2784,0.0917,
16.5270,-0.5425,-0.0790,0.9643,-0.0440,0.2784,0.0917,
16.5280,-0.5425,-0.0790,0.9643,-0.0440,0.2784,0.0917,
16.5290,-0.5425,-0.0790,0.9643,-0.0802,0.3774,0.0795,
16.5300,-0.1369,-0.0243,1.2325,-0.0802,0.3774,0.0795,
16.5840,-0.1369,-0.0243,1.2325,-0.0802,0.3774,0.0795,
16.5860,-0.1369,-0.0243,1.2325,-0.0802,0.3774,0.0795,
16.5880,-0.1369,-0.0243,1.2325,-0.0802,0.3774,0.0795,
16.5890,-0.8281,-0.2463,1.7190,-0.0802,0.3774,0.0795,
16.5910,-0.8281,-0.2463,1.7190,-0.0986,0.4055,0.0819,
16.6430,-0.8281,-0.2463,1.7190,-0.0986,0.4055,0.0819,
16.6460,-0.8281,-0.2463,1.7190,-0.0986,0.4055,0.0819,
16.6470,-0.8281,-0.2463,1.7190,-0.0986,0.4055,0.0819,
16.6480,-0.8281,-0.2463,1.7190,-0.0082,0.3871,0.0119,
16.6500,-1.0120,1.8913,0.4971,-0.0082,0.3871,0.0119,
16.7020,-1.0120,1.8913,0.4971,-0.0082,0.3871,0.0119,
16.7040,-1.0120,1.8913,0.4971,-0.0082,0.3871,0.0119,
16.7050,-1.0120,1.8913,0.4971,-0.0082,0.3871,0.0119,
16.7060,-1.0120,1.8913,0.4971,0.0725,0.1562,-0.0354,
16.7070,0.7034,2.0173,-3.6609,0.0725,0.1562,-0.0354,
16.7610,0.7034,2.0173,-3.6609,0.0725,0.1562,-0.0354,
16.7630,0.7034,2.0173,-3.6609,0.0725,0.1562,-0.0354,
16.7640,0.7034,2.0173,-3.6609,0.0725,0.1562,-0.0354,
16.7650,0.7034,2.0173,-3.6609,-0.3498,0.3289,-0.0333,
16.7670,0.6152,-1.4406,-0.6009,-0.3498,0.3289,-0.0333,
16.8190,0.6152,-1.4406,-0.6009,-0.3498,0.3289,-0.0333,
16.8210,0.6152,-1.4406,-0.6009,-0.3498,0.3289,-0.0333,
16.8220,0.6152,-1.4406,-0.6009,-0.3498,0.3289,-0.0333,
16.8240,0.6152,-1.4406,-0.6009,-0.0627,0.1518,0.1023,
16.8260,-0.3660,-0.3536,-0.9196,-0.0627,0.1518,0.1023,
16.8770,-0.3660,-0.3536,-0.9196,-0.0627,0.1518,0.1023,
16.8790,-0.3660,-0.3536,-0.9196,-0.0627,0.1518,0.1023,
16.8800,-0.3660,-0.3536,-0.9196,-0.0627,0.1518,0.1023,
16.8810,-0.3660,-0.3536,-0.9196,-0.1576,-0.1732,0.1458,
16.8840,0.3289,-0.2751,-0.7950,-0.1576,-0.1732,0.1458,
16.9360,0.3289,-0.2751,-0.7950,-0.1576,-0.1732,0.1458,
16.9380,0.3289,-0.2751,-0.7950,-0.1576,-0.1732,0.1458,
16.9400,0.3289,-0.2751,-0.7950,-0.1576,-0.1732,0.1458,
16.9420,0.3289,-0.2751,-0.7950,-0.0477,-0.1194,0.1524,
16.9450,0.8376,-0.7526,-0.3474,-0.0477,-0.1194,0.1524,
16.9930,0.8376,-0.7526,-0.3474,-0.0477,-0.1194,0.1524,
16.9950,0.8376,-0.7526,-0.3474,-0.0477,-0.1194,0.1524,
16.9970,0.8376,-0.7526,-0.3474,-0.0477,-0.1194,0.1524,
16.9980,0.9311,-0.4027,-0.1172,-0.0477,-0.1194,0.1524,
17.0000,0.9311,-0.4027,-0.1172,0.0138,-0.0327,0.1190,
17.0530,0.9311,-0.4027,-0.1172,0.0138,-0.0327,0.1190,
17.0550,0.9311,-0.4027,-0.1172,0.0138,-0.0327,0.1190,
17.0560,0.9311,-0.4027,-0.1172,0.0138,-0.0327,0.1190,
17.0580,0.9311,-0.4027,-0.1172,0.0016,-0.0848,0.0542,
17.0590,0.4972,0.3857,-0.1834,0.0016,-0.0848,0.0542,
17.1110,0.4972,0.3857,-0.1834,0.0016,-0.0848,0.0542,
17.1130,0.4972,0.3857,-0.1834,0.0016,-0.0848,0.0542,
17.1140,0.4972,0.3857,-0.1834,0.0016,-0.0848,0.0542,
17.1150,0.4972,0.3857,-0.1834,-0.1226,-0.2033,-0.0358,
17.1170,0.1140,-0.3682,0.3433,-0.1226,-0.2033,-0.0358,
17.1700,0.1140,-0.3682,0.3433,-0.1226,-0.2033,-0.0358,
17.1720,0.1140,-0.3682,0.3433,-0.1226,-0.2033,-0.0358,
17.1730,0.1140,-0.3682,0.3433,-0.1226,-0.2033,-0.0358,
17.1740,0.1140,-0.3682,0.3433,-0.0672,-0.2656,-0.0345,
17.1750,0.5683,0.1232,0.0619,-0.0672,-0.2656,-0.0345,
17.2280,0.5683,0.1232,0.0619,-0.0672,-0.2656,-0.0345,
17.2300,0.5683,0.1232,0.0619,-0.0672,-0.2656,-0.0345,
17.2310,0.5683,0.1232,0.0619,-0.0672,-0.2656,-0.0345,
17.2330,0.5683,0.1232,0.0619,-0.0937,-0.3023,0.0591,
17.2350,0.8786,-0.5213,0.7468,-0.0937,-0.3023,0.0591,
17.2870,0.8786,-0.5213,0.7468,-0.0937,-0.3023,0.0591,
17.2890,0.8786,-0.5213,0.7468,-0.0937,-0.3023,0.0591,
17.2900,0.8786,-0.5213,0.7468,-0.0937,-0.3023,0.0591,
17.2920,1.3650,-0.2598,1.2126,-0.0937,-0.3023,0.0591,
17.2950,1.3650,-0.2598,1.2126,-0.0183,-0.3051,-0.0154,
17.3450,1.3650,-0.2598,1.2126,-0.0183,-0.3051,-0.0154,
17.3470,1.3650,-0.2598,1.2126,-0.0183,-0.3051,-0.0154,
17.3480,1.3650,-0.2598,1.2126,-0.0183,-0.3051,-0.0154,
17.3500,0.8990,-0.0103,1.2341,-0.0183,-0.3051,-0.0154,
17.3510,0.8990,-0.0103,1.2341,0.0627,-0.2270,-0.1070,
17.4040,0.8990,-0.0103,1.2341,0.0627,-0.2270,-0.1070,
17.4060,0.8990,-0.0103,1.2341,0.0627,-0.2270,-0.1070,
17.4070,0.8990,-0.0103,1.2341,0.0627,-0.2270,-0.1070,
17.4090,0.8990,-0.0103,1.2341,0.1026,-0.3165,-0.1136,
17.4110,0.5860,0.2078,1.0491,0.1026,-0.3165,-0.1136,
17.4620,0.5860,0.2078,1.0491,0.1026,-0.3165,-0.1136,
17.4640,0.5860,0.2078,1.0491,0.1026,-0.3165,-0.1136,
17.4650,0.5860,0.2078,1.0491,0.1026,-0.3165,-0.1136,
17.4670,0.5860,0.2078,1.0491,0.1014,-0.4375,-0.0871,
17.4680,1.0599,1.6175,0.9079,0.1014,-0.4375,-0.0871,
17.5220,1.0599,1.6175,0.9079,0.1014,-0.4375,-0.0871,
17.5240,1.0599,1.6175,0.9079,0.1014,-0.4375,-0.0871,
17.5250,1.0599,1.6175,0.9079,0.1014,-0.4375,-0.0871,
17.5260,1.0599,1.6175,0.9079,0.1482,-0.0164,-0.0411,
17.5280,-0.1048,2.3642,-2.0413,0.1482,-0.0164,-0.0411,
17.5800,-0.1048,2.3642,-2.0413,0.1482,-0.0164,-0.0411,
17.5820,-0.1048,2.3642,-2.0413,0.1482,-0.0164,-0.0411,
17.5840,-0.1048,2.3642,-2.0413,0.1482,-0.0164,-0.0411,
17.5850,-0.1048,2.3642,-2.0413,0.0627,-0.3626,0.0233,
17.5860,-1.7587,-1.5181,-0.6072,0.0627,-0.3626,0.0233,
17.6380,-1.7587,-1.5181,-0.6072,0.0627,-0.3626,0.0233,
17.6400,-1.7587,-1.5181,-0.6072,0.0627,-0.3626,0.0233,
17.6410,-1.7587,-1.5181,-0.6072,0.0627,-0.3626,0.0233,
17.6430,-1.7587,-1.5181,-0.6072,0.2382,-0.2563,-0.0557,
17.6450,0.1952,-0.7874,-0.9474,0.2382,-0.2563,-0.0557,
17.6970,0.1952,-0.7874,-0.9474,0.2382,-0.2563,-0.0557,
17.6990,0.1952,-0.7874,-0.9474,0.2382,-0.2563,-0.0557,
17.7000,0.1952,-0.7874,-0.9474,0.2382,-0.2563,-0.0557,
17.7010,0.1952,-0.7874,-0.9474,0.2337,0.0573,-0.1241,
17.7030,-1.1273,-0.1399,-0.9693,0.2337,0.0573,-0.1241,
17.7550,-1.1273,-0.1399,-0.9693,0.2337,0.0573,-0.1241,
17.7570,-1.1273,-0.1399,-0.9693,0.2337,0.0573,-0.1241,
17.7580,-1.1273,-0.1399,-0.9693,0.2337,0.0573,-0.1241,
17.7600,-1.1273,-0.1399,-0.9693,0.0961,0.0553,-0.0614,
17.7610,-0.1005,-0.3704,-0.7055,0.0961,0.0553,-0.0614,
17.8140,-0.1005,-0.3704,-0.7055,0.0961,0.0553,-0.0614,
17.8160,-0.1005,-0.3704,-0.7055,0.0961,0.0553,-0.0614,
17.8170,-0.1005,-0.3704,-0.7055,0.0961,0.0553,-0.0614,
17.8180,-0.1005,-0.3704,-0.7055,0.0598,0.1180,-0.0565,
17.8200,-0.2920,-0.1698,-0.0145,0.0598,0.1180,-0.0565,
17.8730,-0.2920,-0.1698,-0.0145,0.0598,0.1180,-0.0565,
17.8750,-0.2920,-0.1698,-0.0145,0.0598,0.1180,-0.0565,
17.8770,-0.2920,-0.1698,-0.0145,0.0598,0.1180,-0.0565,
17.8780,-0.2920,-0.1698,-0.0145,0.0138,0.1347,-0.0427,
17.8800,-0.5895,-0.2648,0.1262,0.0138,0.1347,-0.0427,
17.9310,-0.5895,-0.2648,0.1262,0.0138,0.1347,-0.0427,
17.9330,-0.5895,-0.2648,0.1262,0.0138,0.1347,-0.0427,
17.9340,-0.5895,-0.2648,0.1262,0.0138,0.1347,-0.0427,
17.9360,-0.5895,-0.2648,0.1262,-0.0053,0.1253,-0.0435,
17.9370,-0.4243,-0.0227,0.2886,-0.0053,0.1253,-0.0435,
17.9890,-0.4243,-0.0227,0.2886,-0.0053,0.1253,-0.0435,
17.9910,-0.4243,-0.0227,0.2886,-0.0053,0.1253,-0.0435,
17.9920,-0.4243,-0.0227,0.2886,-0.0053,0.1253,-0.0435,
17.9940,-0.4464,-0.3337,0.4359,-0.0053,0.1253,-0.0435,
17.9960,-0.4464,-0.3337,0.4359,-0.0122,0.2067,-0.0065,
18.0480,-0.4464,-0.3337,0.4359,-0.0122,0.2067,-0.0065,
18.0510,-0.4464,-0.3337,0.4359,-0.0122,0.2067,-0.0065,
18.0520,-0.4464,-0.3337,0.4359,-0.0122,0.2067,-0.0065,
18.0530,-0.4464,-0.3337,0.4359,-0.0147,0.2210,0.0025,
18.0550,-0.4048,-0.1768,0.5653,-0.0147,0.2210,0.0025,
18.1070,-0.4048,-0.1768,0.5653,-0.0147,0.2210,0.0025,
18.1090,-0.4048,-0.1768,0.5653,-0.0147,0.2210,0.0025,
18.1100,-0.4048,-0.1768,0.5653,-0.0147,0.2210,0.0025,
18.1120,-0.4048,-0.1768,0.5653,-0.0297,0.2923,0.0090,
18.1130,-0.3132,-0.2534,0.7771,-0.0297,0.2923,0.0090,
18.1650,-0.3132,-0.2534,0.7771,-0.0297,0.2923,0.0090,
18.1670,-0.3132,-0.2534,0.7771,-0.0297,0.2923,0.0090,
18.1680,-0.3132,-0.2534,0.7771,-0.0297,0.2923,0.0090,
18.1700,-0.3132,-0.2534,0.7771,-0.0342,0.3468,0.0221,
18.1720,-0.3742,-0.1998,0.8351,-0.0342,0.3468,0.0221,
18.2240,-0.3742,-0.1998,0.8351,-0.0342,0.3468,0.0221,
18.2260,-0.3742,-0.1998,0.8351,-0.0342,0.3468,0.0221,
18.2270,-0.3742,-0.1998,0.8351,-0.0342,0.3468,0.0221,
18.2280,-0.3742,-0.1998,0.8351,-0.0778,0.4010,0.0212,
18.2300,-0.3657,-0.2028,1.1033,-0.0778,0.4010,0.0212,
18.2830,-0.3657,-0.2028,1.1033,-0.0778,0.4010,0.0212,
18.2860,-0.3657,-0.2028,1.1033,-0.0778,0.4010,0.0212,
18.2870,-0.3657,-0.2028,1.1033,-0.0778,0.4010,0.0212,
18.2880,-0.3657,-0.2028,1.1033,-0.1149,0.4368,0.0396,
18.2900,-0.7054,0.2339,1.3300,-0.1149,0.4368,0.0396,
18.3410,-0.7054,0.2339,1.3300,-0.1149,0.4368,0.0396,
18.3430,-0.7054,0.2339,1.3300,-0.1149,0.4368,0.0396,
18.3440,-0.7054,0.2339,1.3300,-0.1149,0.4368,0.0396,
18.3460,-0.7054,0.2339,1.3300,-0.0831,0.3973,-0.0940,
18.3470,-1.3217,2.4694,0.1278,-0.0831,0.3973,-0.0940,
18.4000,-1.3217,2.4694,0.1278,-0.0831,0.3973,-0.0940,
18.4020,-1.3217,2.4694,0.1278,-0.0831,0.3973,-0.0940,
18.4030,-1.3217,2.4694,0.1278,-0.0831,0.3973,-0.0940,
18.4050,-1.3217,2.4694,0.1278,-0.0281,0.1155,-0.0545,
18.4060,0.8649,0.6415,-2.7123,-0.0281,0.1155,-0.0545,
18.4580,0.8649,0.6415,-2.7123,-0.0281,0.1155,-0.0545,
18.4600,0.8649,0.6415,-2.7123,-0.0281,0.1155,-0.0545,
18.4610,0.8649,0.6415,-2.7123,-0.0281,0.1155,-0.0545,
18.4630,0.8649,0.6415,-2.7123,-0.2456,0.4487,-0.1229,
18.4650,1.1896,-1.8909,0.0591,-0.2456,0.4487,-0.1229,
18.5180,1.1896,-1.8909,0.0591,-0.2456,0.4487,-0.1229,
18.5200,1.1896,-1.8909,0.0591,-0.2456,0.4487,-0.1229,
18.5210,1.1896,-1.8909,0.0591,-0.2456,0.4487,-0.1229,
18.5220,1.1896,-1.8909,0.0591,0.1258,0.2764,0.0318,
18.5240,-0.7972,0.4784,-0.9175,0.1258,0.2764,0.0318,
18.5750,-0.7972,0.4784,-0.9175,0.1258,0.2764,0.0318,
18.5770,-0.7972,0.4784,-0.9175,0.1258,0.2764,0.0318,
18.5780,-0.7972,0.4784,-0.9175,0.1258,0.2764,0.0318,
18.5790,-0.7972,0.4784,-0.9175,-0.1091,-0.2457,0.0717,
18.5810,0.4785,-0.0170,-0.8673,-0.1091,-0.2457,0.0717,
18.6350,0.4785,-0.0170,-0.8673,-0.1091,-0.2457,0.0717,
18.6370,0.4785,-0.0170,-0.8673,-0.1091,-0.2457,0.0717,
18.6380,0.4785,-0.0170,-0.8673,-0.1091,-0.2457,0.0717,
18.6390,0.4785,-0.0170,-0.8673,-0.0819,-0.1125,0.0664,
18.6400,0.3450,-0.6258,-0.2257,-0.0819,-0.1125,0.0664,
18.6920,0.3450,-0.6258,-0.2257,-0.0819,-0.1125,0.0664,
18.6950,0.3450,-0.6258,-0.2257,-0.0819,-0.1125,0.0664,
18.6970,0.3450,-0.6258,-0.2257,-0.0819,-0.1125,0.0664,
18.6990,0.3450,-0.6258,-0.2257,0.0008,-0.0873,0.1218,
18.7010,1.2533,0.1924,-0.1523,0.0008,-0.0873,0.1218,
18.7510,1.2533,0.1924,-0.1523,0.0008,-0.0873,0.1218,
18.7540,1.2533,0.1924,-0.1523,0.0008,-0.0873,0.1218,
18.7550,1.2533,0.1924,-0.1523,0.0008,-0.0873,0.1218,
18.7560,1.2533,0.1924,-0.1523,-0.0717,-0.0954,0.0567,
18.7570,0.3286,-0.3058,0.2532,-0.0717,-0.0954,0.0567,
18.8100,0.3286,-0.3058,0.2532,-0.0717,-0.0954,0.0567,
18.8120,0.3286,-0.3058,0.2532,-0.0717,-0.0954,0.0567,
18.8130,0.3286,-0.3058,0.2532,-0.0717,-0.0954,0.0567,
18.8140,0.3286,-0.3058,0.2532,-0.0591,-0.2249,-0.0260,
18.8150,0.0552,-0.3237,0.4843,-0.0591,-0.2249,-0.0260,
18.8670,0.0552,-0.3237,0.4843,-0.0591,-0.2249,-0.0260,
18.8690,0.0552,-0.3237,0.4843,-0.0591,-0.2249,-0.0260,
18.8690,0.0552,-0.3237,0.4843,-0.0591,-0.2249,-0.0260,
18.8700,0.0552,-0.3237,0.4843,-0.0236,-0.3210,-0.0024,
18.8710,0.7675,-0.1310,0.4947,-0.0236,-0.3210,-0.0024,
18.9270,0.7675,-0.1310,0.4947,-0.0236,-0.3210,-0.0024,
18.9290,0.7675,-0.1310,0.4947,-0.0236,-0.3210,-0.0024,
18.9300,0.7675,-0.1310,0.4947,-0.0236,-0.3210,-0.0024,
18.9310,0.7675,-0.1310,0.4947,0.0554,-0.2616,-0.0109,
18.9330,0.9682,-0.2229,0.5739,0.0554,-0.2616,-0.0109,
18.9670,0.9682,-0.2229,0.5739,0.0554,-0.2616,-0.0109,
18.9690,0.9682,-0.2229,0.5739,0.0554,-0.2616,-0.0109,
19.0250,0.9682,-0.2229,0.5739,0.0554,-0.2616,-0.0109,
19.0270,0.9682,-0.2229,0.5739,0.0554,-0.2616,-0.0109,
19.0280,0.9682,-0.2229,0.5739,0.0554,-0.2616,-0.0109,
19.0290,0.9682,-0.2229,0.5739,0.0326,-0.2665,-0.0390,
19.0310,0.7480,0.1061,0.4189,0.0326,-0.2665,-0.0390,
19.0830,0.7480,0.1061,0.4189,0.0326,-0.2665,-0.0390,
19.0850,0.7480,0.1061,0.4189,0.0326,-0.2665,-0.0390,
19.0870,0.7480,0.1061,0.4189,0.0326,-0.2665,-0.0390,
19.0880,0.7480,0.1061,0.4189,-0.0529,-0.2950,-0.0688,
19.0900,0.9719,0.0147,1.0330,-0.0529,-0.2950,-0.0688,
19.1420,0.9719,0.0147,1.0330,-0.0529,-0.2950,-0.0688,
19.1440,0.9719,0.0147,1.0330,-0.0529,-0.2950,-0.0688,
19.1450,0.9719,0.0147,1.0330,-0.0529,-0.2950,-0.0688,
19.1460,0.9719,0.0147,1.0330,-0.0025,-0.2823,-0.0630,
19.1470,1.4615,0.1802,1.1113,-0.0025,-0.2823,-0.0630,
19.2010,1.4615,0.1802,1.1113,-0.0025,-0.2823,-0.0630,
19.2030,1.4615,0.1802,1.1113,-0.0025,-0.2823,-0.0630,
19.2040,1.4615,0.1802,1.1113,-0.0025,-0.2823,-0.0630,
19.2060,1.4615,0.1802,1.1113,0.1804,0.0679,-0.0004,
19.2070,0.6855,3.1466,-1.4536,0.1804,0.0679,-0.0004,
19.2590,0.6855,3.1466,-1.4536,0.1804,0.0679,-0.0004,
19.2610,0.6855,3.1466,-1.4536,0.1804,0.0679,-0.0004,
19.2620,0.6855,3.1466,-1.4536,0.1804,0.0679,-0.0004,
19.2640,0.6855,3.1466,-1.4536,-0.0705,-0.0979,0.1503,
19.2650,-1.8961,-0.7907,0.3768,-0.0705,-0.0979,0.1503,
19.3180,-1.8961,-0.7907,0.3768,-0.0705,-0.0979,0.1503,
19.3200,-1.8961,-0.7907,0.3768,-0.0705,-0.0979,0.1503,
19.3220,-1.8961,-0.7907,0.3768,-0.0705,-0.0979,0.1503,
19.3230,-0.1861,-0.2272,-1.5376,-0.0705,-0.0979,0.1503,
19.3250,-0.1861,-0.2272,-1.5376,0.2496,-0.4513,0.0628,
19.3760,-0.1861,-0.2272,-1.5376,0.2496,-0.4513,0.0628,
19.3790,-0.1861,-0.2272,-1.5376,0.2496,-0.4513,0.0628,
19.3800,-0.1861,-0.2272,-1.5376,0.2496,-0.4513,0.0628,
19.3810,-0.1861,-0.2272,-1.5376,0.1116,-0.0755,-0.0052,
19.3820,-1.3384,-0.2607,-1.2904,0.1116,-0.0755,-0.0052,
19.4350,-0.6215,-0.0112,-0.7362,0.1116,-0.0755,-0.0052,
19.4380,-0.6215,-0.0112,-0.7362,0.1116,-0.0755,-0.0052,
19.4390,-0.6215,-0.0112,-0.7362,0.1116,-0.0755,-0.0052,
19.4400,-0.6215,-0.0112,-0.7362,0.1116,-0.0755,-0.0052,
19.4410,-0.6215,-0.0112,-0.7362,-0.0033,-0.1752,-0.0126,
19.4940,-0.6215,-0.0112,-0.7362,-0.0033,-0.1752,-0.0126,
19.4960,-0.6215,-0.0112,-0.7362,-0.0033,-0.1752,-0.0126,
19.4980,-0.6215,-0.0112,-0.7362,-0.0033,-0.1752,-0.0126,
19.4990,-0.7520,-0.6956,-0.2144,-0.0033,-0.1752,-0.0126,
19.5010,-0.7520,-0.6956,-0.2144,-0.0472,-0.0616,-0.0582,
19.5520,-0.7520,-0.6956,-0.2144,-0.0472,-0.0616,-0.0582,
19.5540,-0.7520,-0.6956,-0.2144,-0.0472,-0.0616,-0.0582,
19.5550,-0.7520,-0.6956,-0.2144,-0.0472,-0.0616,-0.0582,
19.5570,-0.7520,-0.6956,-0.2144,0.0558,-0.1667,0.0135,
19.5580,-0.7686,-0.5271,0.0307,0.0558,-0.1667,0.0135,
19.6100,-0.7686,-0.5271,0.0307,0.0558,-0.1667,0.0135,
19.6130,-0.7686,-0.5271,0.0307,0.0558,-0.1667,0.0135,
19.6140,-0.7686,-0.5271,0.0307,0.0558,-0.1667,0.0135,
19.6150,-0.1029,-0.7356,0.3089,0.0558,-0.1667,0.0135,
19.6170,-0.1029,-0.7356,0.3089,0.1384,-0.1040,0.0245,
19.6690,-0.1029,-0.7356,0.3089,0.1384,-0.1040,0.0245,
19.6720,-0.1029,-0.7356,0.3089,0.1384,-0.1040,0.0245,
19.6730,-0.1029,-0.7356,0.3089,0.1384,-0.1040,0.0245,
19.6750,-0.1029,-0.7356,0.3089,0.1853,-0.0111,0.0070,
19.6790,-0.3802,-0.1988,0.4657,0.1853,-0.0111,0.0070,
19.7260,-0.3802,-0.1988,0.4657,0.1853,-0.0111,0.0070,
19.7270,-0.3802,-0.1988,0.4657,0.1853,-0.0111,0.0070,
19.7280,-0.3802,-0.1988,0.4657,0.1853,-0.0111,0.0070,
19.7280,-0.3802,-0.1988,0.4657,0.0916,0.0536,0.0098,
19.7290,-0.3007,0.2341,0.7882,0.0916,0.0536,0.0098,
19.7870,-0.3007,0.2341,0.7882,0.0916,0.0536,0.0098,
19.7880,-0.3007,0.2341,0.7882,0.0916,0.0536,0.0098,
19.7880,-0.3007,0.2341,0.7882,0.0916,0.0536,0.0098,
19.7880,-0.3007,0.2341,0.7882,0.0668,0.1929,0.0021,
19.7890,-0.0301,-0.2855,0.9516,0.0668,0.1929,0.0021,
19.8450,-0.0301,-0.2855,0.9516,0.0668,0.1929,0.0021,
19.8460,-0.0301,-0.2855,0.9516,0.0668,0.1929,0.0021,
19.8470,-0.0301,-0.2855,0.9516,0.0668,0.1929,0.0021,
19.8470,-0.0301,-0.2855,0.9516,0.0049,0.2475,-0.0085,
19.8480,-0.4110,-0.3166,1.0284,0.0049,0.2475,-0.0085,
19.9030,-0.4110,-0.3166,1.0284,0.0049,0.2475,-0.0085,
19.9050,-0.4110,-0.3166,1.0284,0.0049,0.2475,-0.0085,
19.9060,-0.4110,-0.3166,1.0284,0.0049,0.2475,-0.0085,
19.9070,-0.4110,-0.3166,1.0284,-0.0762,0.2800,-0.0170,
19.9080,-0.4755,0.2232,1.3297,-0.0762,0.2800,-0.0170,
19.9610,-0.4755,0.2232,1.3297,-0.0762,0.2800,-0.0170,
19.9620,-0.4755,0.2232,1.3297,-0.0762,0.2800,-0.0170,
19.9630,-0.4755,0.2232,1.3297,-0.0762,0.2800,-0.0170,
19.9640,-0.2058,0.0383,1.6064,-0.0762,0.2800,-0.0170,
19.9650,-0.2058,0.0383,1.6064,-0.1051,0.4629,0.0404,
20.0190,-0.2058,0.0383,1.6064,-0.1051,0.4629,0.0404,
20.0200,-0.2058,0.0383,1.6064,-0.1051,0.4629,0.0404,
20.0200,-0.2058,0.0383,1.6064,-0.1051,0.4629,0.0404,
20.0210,-0.2058,0.0383,1.6064,0.0696,0.4499,-0.1009,
20.0210,-1.8494,2.0492,0.0508,0.0696,0.4499,-0.1009,
20.0770,-1.8494,2.0492,0.0508,0.0696,0.4499,-0.1009,
20.0780,-1.8494,2.0492,0.0508,0.0696,0.4499,-0.1009,
20.0790,-1.8494,2.0492,0.0508,0.0696,0.4499,-0.1009,
20.0790,-1.8494,2.0492,0.0508,0.0790,0.0324,-0.0484,
20.0800,0.4522,2.1457,-2.9082,0.0790,0.0324,-0.0484,
20.1370,0.4522,2.1457,-2.9082,0.0790,0.0324,-0.0484,
20.1380,0.4522,2.1457,-2.9082,0.0790,0.0324,-0.0484,
20.1380,0.4522,2.1457,-2.9082,0.0790,0.0324,-0.0484,
20.1390,0.4522,2.1457,-2.9082,-0.2948,0.6637,-0.0594,
20.1390,1.9686,-1.8583,-0.0297,-0.2948,0.6637,-0.0594,
20.1960,1.9686,-1.8583,-0.0297,-0.2948,0.6637,-0.0594,
20.1980,1.9686,-1.8583,-0.0297,-0.2948,0.6637,-0.0594,
20.1990,1.9686,-1.8583,-0.0297,-0.2948,0.6637,-0.0594,
20.2000,1.9686,-1.8583,-0.0297,0.0859,0.5777,0.0298,
20.2010,-1.0051,-0.8940,-0.6420,0.0859,0.5777,0.0298,
20.2550,0.9503,0.7016,-1.2302,0.0859,0.5777,0.0298,
20.2580,0.9503,0.7016,-1.2302,0.0859,0.5777,0.0298,
20.2600,0.9503,0.7016,-1.2302,0.0859,0.5777,0.0298,
20.2610,0.9503,0.7016,-1.2302,0.0859,0.5777,0.0298,
20.2620,0.9503,0.7016,-1.2302,-0.0868,-0.0783,0.0383,
20.3140,0.9503,0.7016,-1.2302,-0.0868,-0.0783,0.0383,
20.3160,0.9503,0.7016,-1.2302,-0.0868,-0.0783,0.0383,
20.3170,0.9503,0.7016,-1.2302,-0.0868,-0.0783,0.0383,
20.3180,0.9503,0.7016,-1.2302,-0.2016,0.1575,0.1002,
20.3200,0.3879,-0.4944,-0.2334,-0.2016,0.1575,0.1002,
20.3710,0.3879,-0.4944,-0.2334,-0.2016,0.1575,0.1002,
20.3740,0.3879,-0.4944,-0.2334,-0.2016,0.1575,0.1002,
20.3750,0.3879,-0.4944,-0.2334,-0.2016,0.1575,0.1002,
20.3760,0.3879,-0.4944,-0.2334,-0.1193,-0.0164,0.1043,
20.3770,0.4257,-0.5739,0.2027,-0.1193,-0.0164,0.1043,
20.4310,0.4257,-0.5739,0.2027,-0.1193,-0.0164,0.1043,
20.4330,0.4257,-0.5739,0.2027,-0.1193,-0.0164,0.1043,
20.4340,0.4257,-0.5739,0.2027,-0.1193,-0.0164,0.1043,
20.4360,0.4257,-0.5739,0.2027,-0.0741,-0.1170,0.0925,
20.4370,0.6925,-0.1244,0.0316,-0.0741,-0.1170,0.0925,
20.4890,0.6925,-0.1244,0.0316,-0.0741,-0.1170,0.0925,
20.4920,0.6925,-0.1244,0.0316,-0.0741,-0.1170,0.0925,
20.4940,0.6925,-0.1244,0.0316,-0.0741,-0.1170,0.0925,
20.4950,0.6925,-0.1244,0.0316,-0.0473,-0.1394,0.0404,
20.4970,0.5417,-0.1099,0.1579,-0.0473,-0.1394,0.0404,
20.5470,0.5417,-0.1099,0.1579,-0.0473,-0.1394,0.0404,
20.5490,0.5417,-0.1099,0.1579,-0.0473,-0.1394,0.0404,
20.5500,0.5417,-0.1099,0.1579,-0.0473,-0.1394,0.0404,
20.5520,0.5417,-0.1099,0.1579,-0.0497,-0.2029,-0.0183,
20.5530,0.5420,-0.1672,0.2210,-0.0497,-0.2029,-0.0183,
20.6060,0.5420,-0.1672,0.2210,-0.0497,-0.2029,-0.0183,
20.6080,0.5420,-0.1672,0.2210,-0.0497,-0.2029,-0.0183,
20.6090,0.5420,-0.1672,0.2210,-0.0497,-0.2029,-0.0183,
20.6110,0.5420,-0.1672,0.2210,0.0045,-0.2269,-0.0215,
20.6130,0.7050,-0.3829,0.4839,0.0045,-0.2269,-0.0215,
20.6650,0.7050,-0.3829,0.4839,0.0045,-0.2269,-0.0215,
20.6670,0.7050,-0.3829,0.4839,0.0045,-0.2269,-0.0215,
20.6680,0.7050,-0.3829,0.4839,0.0045,-0.2269,-0.0215,
20.6690,0.7050,-0.3829,0.4839,0.0240,-0.2396,-0.0170,
20.6710,0.8481,-0.1769,0.4484,0.0240,-0.2396,-0.0170,
20.7240,0.8481,-0.1769,0.4484,0.0240,-0.2396,-0.0170,
20.7260,0.8481,-0.1769,0.4484,0.0240,-0.2396,-0.0170,
20.7270,0.8481,-0.1769,0.4484,0.0240,-0.2396,-0.0170,
20.7280,0.8481,-0.1769,0.4484,-0.0472,-0.2587,-0.0749,
20.7300,0.8208,0.0896,0.6696,-0.0472,-0.2587,-0.0749,
20.7820,0.8208,0.0896,0.6696,-0.0472,-0.2587,-0.0749,
20.7840,0.8208,0.0896,0.6696,-0.0472,-0.2587,-0.0749,
20.7850,0.8208,0.0896,0.6696,-0.0472,-0.2587,-0.0749,
20.7860,1.0578,0.1486,0.9807,-0.0472,-0.2587,-0.0749,
20.7880,1.0578,0.1486,0.9807,-0.1169,-0.3084,-0.1140,
20.8400,1.0578,0.1486,0.9807,-0.1169,-0.3084,-0.1140,
20.8420,1.0578,0.1486,0.9807,-0.1169,-0.3084,-0.1140,
20.8440,1.0578,0.1486,0.9807,-0.1169,-0.3084,-0.1140,
20.8450,1.0578,0.1486,0.9807,-0.1189,-0.3328,-0.1054,
20.8470,0.9088,0.2566,1.4610,-0.1189,-0.3328,-0.1054,
20.8990,0.9088,0.2566,1.4610,-0.1189,-0.3328,-0.1054,
20.9010,0.9088,0.2566,1.4610,-0.1189,-0.3328,-0.1054,
20.9020,0.9088,0.2566,1.4610,-0.1189,-0.3328,-0.1054,
20.9030,0.9088,0.2566,1.4610,0.1584,-0.0421,-0.0126,
20.9050,1.3890,2.8883,-1.3686,0.1584,-0.0421,-0.0126,
20.9580,1.3890,2.8883,-1.3686,0.1584,-0.0421,-0.0126,
20.9610,1.3890,2.8883,-1.3686,0.1584,-0.0421,-0.0126,
20.9620,1.3890,2.8883,-1.3686,0.1584,-0.0421,-0.0126,
20.9640,1.3890,2.8883,-1.3686,-0.0407,0.0096,0.0966,
20.9650,-2.4233,-0.5338,-0.2052,-0.0407,0.0096,0.0966,
20.9880,-2.4233,-0.5338,-0.2052,0.1877,-0.4359,0.0795,
20.9900,0.1118,-0.7946,-1.1103,0.1877,-0.4359,0.0795,
20.9910,0.1118,-0.7946,-1.1103,0.1877,-0.4359,0.0795,
21.0350,0.1118,-0.7946,-1.1103,0.1437,-0.0730,-0.0366,
21.0380,-1.3689,-0.5577,-1.2265,0.1437,-0.0730,-0.0366,
21.0750,-1.3689,-0.5577,-1.2265,0.1437,-0.0730,-0.0366,
21.0770,-1.3689,-0.5577,-1.2265,0.1437,-0.0730,-0.0366,
21.0780,-1.3689,-0.5577,-1.2265,0.1437,-0.0730,-0.0366,
21.0790,-1.3689,-0.5577,-1.2265,0.1437,-0.0730,-0.0366,
21.0790,-1.3689,-0.5577,-1.2265,0.1437,-0.0730,-0.0366,
21.1340,-1.3689,-0.5577,-1.2265,0.1437,-0.0730,-0.0366,
21.1350,-1.3689,-0.5577,-1.2265,0.1437,-0.0730,-0.0366,
21.1370,-1.3689,-0.5577,-1.2265,0.1437,-0.0730,-0.0366,
21.1380,-1.3689,-0.5577,-1.2265,0.1018,-0.1602,-0.0651,
21.1390,-0.7633,0.3680,-0.7584,0.1018,-0.1602,-0.0651,
21.1910,-0.7633,0.3680,-0.7584,0.1018,-0.1602,-0.0651,
21.1940,-0.7633,0.3680,-0.7584,0.1018,-0.1602,-0.0651,
21.1950,-0.7633,0.3680,-0.7584,0.1018,-0.1602,-0.0651,
21.1960,-0.7633,0.3680,-0.7584,-0.0069,0.0027,-0.0773,
21.1980,-0.2410,-0.2963,-0.2890,-0.0069,0.0027,-0.0773,
21.2510,-0.2410,-0.2963,-0.2890,-0.0069,0.0027,-0.0773,
21.2530,-0.2410,-0.2963,-0.2890,-0.0069,0.0027,-0.0773,
21.2540,-0.2410,-0.2963,-0.2890,-0.0069,0.0027,-0.0773,
21.2550,-0.8060,-0.6823,0.0903,-0.0069,0.0027,-0.0773,
21.2570,-0.8060,-0.6823,0.0903,0.0036,-0.0156,-0.0557,
21.3080,-0.8060,-0.6823,0.0903,0.0036,-0.0156,-0.0557,
21.3100,-0.8060,-0.6823,0.0903,0.0036,-0.0156,-0.0557,
21.3110,-0.8060,-0.6823,0.0903,0.0036,-0.0156,-0.0557,
21.3120,-0.8060,-0.6823,0.0903,0.0493,-0.0205,-0.0297,
21.3140,-0.4134,-0.3879,0.1346,0.0493,-0.0205,-0.0297,
21.3680,-0.4134,-0.3879,0.1346,0.0493,-0.0205,-0.0297,
21.3700,-0.4134,-0.3879,0.1346,0.0493,-0.0205,-0.0297,
21.3710,-0.4134,-0.3879,0.1346,0.0493,-0.0205,-0.0297,
21.3730,-0.4134,-0.3879,0.1346,0.1050,0.0748,-0.0138,
21.3740,-0.4089,-0.3451,0.1437,0.1050,0.0748,-0.0138,
21.4260,-0.4089,-0.3451,0.1437,0.1050,0.0748,-0.0138,
21.4280,-0.4089,-0.3451,0.1437,0.1050,0.0748,-0.0138,
21.4290,-0.4089,-0.3451,0.1437,0.1050,0.0748,-0.0138,
21.4300,-0.4089,-0.3451,0.1437,0.0566,0.0565,-0.0472,
21.4310,-0.7176,-0.2456,0.5238,0.0566,0.0565,-0.0472,
21.4860,-0.7176,-0.2456,0.5238,0.0566,0.0565,-0.0472,
21.4880,-0.7176,-0.2456,0.5238,0.0566,0.0565,-0.0472,
21.4890,-0.7176,-0.2456,0.5238,0.0566,0.0565,-0.0472,
21.4900,-0.7176,-0.2456,0.5238,-0.0090,0.1090,-0.0231,
21.4910,-0.3047,0.0760,0.7602,-0.0090,0.1090,-0.0231,
21.5430,-0.3047,0.0760,0.7602,-0.0090,0.1090,-0.0231,
21.5450,-0.3047,0.0760,0.7602,-0.0090,0.1090,-0.0231,
21.5460,-0.3047,0.0760,0.7602,-0.0090,0.1090,-0.0231,
21.5470,-0.3047,0.0760,0.7602,-0.0521,0.1815,0.0029,
21.5490,-0.4006,-0.0432,1.1224,-0.0521,0.1815,0.0029,
21.6030,-0.4006,-0.0432,1.1224,-0.0521,0.1815,0.0029,
21.6050,-0.4006,-0.0432,1.1224,-0.0521,0.1815,0.0029,
21.6060,-0.4006,-0.0432,1.1224,-0.0521,0.1815,0.0029,
21.6070,-0.2975,0.0634,0.9735,-0.0521,0.1815,0.0029,
21.6090,-0.2975,0.0634,0.9735,-0.0802,0.2988,0.0331,
21.6610,-0.2975,0.0634,0.9735,-0.0802,0.2988,0.0331,
21.6640,-0.2975,0.0634,0.9735,-0.0802,0.2988,0.0331,
21.6660,-0.2975,0.0634,0.9735,-0.0802,0.2988,0.0331,
21.6670,-0.2975,0.0634,0.9735,-0.1254,0.4026,0.0477,
21.6690,-0.6409,-0.0198,1.4659,-0.1254,0.4026,0.0477,
21.7190,-0.6409,-0.0198,1.4659,-0.1254,0.4026,0.0477,
21.7210,-0.6409,-0.0198,1.4659,-0.1254,0.4026,0.0477,
21.7220,-0.6409,-0.0198,1.4659,-0.1254,0.4026,0.0477,
21.7230,-0.6409,-0.0198,1.4659,-0.1104,0.4136,-0.0061,
21.7250,-1.3518,1.4124,0.9112,-0.1104,0.4136,-0.0061,
21.7780,-1.3518,1.4124,0.9112,-0.1104,0.4136,-0.0061,
21.7800,-1.3518,1.4124,0.9112,-0.1104,0.4136,-0.0061,
21.7810,-1.3518,1.4124,0.9112,-0.1104,0.4136,-0.0061,
21.7820,-1.3518,1.4124,0.9112,-0.0159,0.0149,-0.0846,
21.7840,-0.7860,2.0569,-1.9725,-0.0159,0.0149,-0.0846,
21.8370,-0.7860,2.0569,-1.9725,-0.0159,0.0149,-0.0846,
21.8390,-0.7860,2.0569,-1.9725,-0.0159,0.0149,-0.0846,
21.8400,-0.7860,2.0569,-1.9725,-0.0159,0.0149,-0.0846,
21.8410,-0.7860,2.0569,-1.9725,-0.1820,0.2405,-0.0419,
21.8430,2.1699,-1.1088,-0.9979,-0.1820,0.2405,-0.0419,
21.8950,2.1699,-1.1088,-0.9979,-0.1820,0.2405,-0.0419,
21.8970,2.1699,-1.1088,-0.9979,-0.1820,0.2405,-0.0419,
21.8990,2.1699,-1.1088,-0.9979,-0.1820,0.2405,-0.0419,
21.9000,0.2274,-1.0864,-0.4874,-0.1820,0.2405,-0.0419,
21.9020,0.2274,-1.0864,-0.4874,0.0509,0.5655,-0.0093,
21.9540,0.2274,-1.0864,-0.4874,0.0509,0.5655,-0.0093,
21.9560,0.2274,-1.0864,-0.4874,0.0509,0.5655,-0.0093,
21.9570,0.2274,-1.0864,-0.4874,0.0509,0.5655,-0.0093,
21.9580,0.3171,0.3683,-1.4425,0.0509,0.5655,-0.0093,
21.9600,0.3171,0.3683,-1.4425,0.0489,0.0410,0.0371,
22.0110,0.3171,0.3683,-1.4425,0.0489,0.0410,0.0371,
22.0140,0.3171,0.3683,-1.4425,0.0489,0.0410,0.0371,
22.0150,0.3171,0.3683,-1.4425,0.0489,0.0410,0.0371,
22.0160,0.3171,0.3683,-1.4425,-0.1096,0.0772,0.0750,
22.0180,0.7370,0.1433,-0.5651,-0.1096,0.0772,0.0750,
22.0700,0.7370,0.1433,-0.5651,-0.1096,0.0772,0.0750,
22.0720,0.7370,0.1433,-0.5651,-0.1096,0.0772,0.0750,
22.0740,0.7370,0.1433,-0.5651,-0.1096,0.0772,0.0750,
22.0750,0.7370,0.1433,-0.5651,-0.1043,0.1339,0.1145,
22.0770,0.7774,-0.9565,-0.0506,-0.1043,0.1339,0.1145,
22.1300,0.7774,-0.9565,-0.0506,-0.1043,0.1339,0.1145,
22.1320,0.7774,-0.9565,-0.0506,-0.1043,0.1339,0.1145,
22.1350,0.7774,-0.9565,-0.0506,-0.1043,0.1339,0.1145,
22.1360,0.7774,-0.9565,-0.0506,0.0089,0.0911,0.0538,
22.1370,0.5371,-0.0834,-0.1340,0.0089,0.0911,0.0538,
22.1880,0.5371,-0.0834,-0.1340,0.0089,0.0911,0.0538,
22.1900,0.5371,-0.0834,-0.1340,0.0089,0.0911,0.0538,
22.1910,0.5371,-0.0834,-0.1340,0.0089,0.0911,0.0538,
22.1930,0.5371,-0.0834,-0.1340,-0.0639,-0.0152,0.0225,
22.1940,0.1026,-0.0184,-0.0906,-0.0639,-0.0152,0.0225,
22.2460,0.1026,-0.0184,-0.0906,-0.0639,-0.0152,0.0225,
22.2490,0.1026,-0.0184,-0.0906,-0.0639,-0.0152,0.0225,
22.2500,0.1026,-0.0184,-0.0906,-0.0639,-0.0152,0.0225,
22.2510,0.1026,-0.0184,-0.0906,-0.0876,-0.1369,0.0005,
22.2530,0.3717,-0.1339,0.3892,-0.0876,-0.1369,0.0005,
22.3050,0.3717,-0.1339,0.3892,-0.0876,-0.1369,0.0005,
22.3070,0.3717,-0.1339,0.3892,-0.0876,-0.1369,0.0005,
22.3080,0.3717,-0.1339,0.3892,-0.0876,-0.1369,0.0005,
22.3100,0.4154,-0.1876,0.6460,-0.0876,-0.1369,0.0005,
22.3120,0.4154,-0.1876,0.6460,-0.0762,-0.2094,-0.0179,
22.3630,0.4154,-0.1876,0.6460,-0.0762,-0.2094,-0.0179,
22.3650,0.4154,-0.1876,0.6460,-0.0762,-0.2094,-0.0179,
22.3670,0.4154,-0.1876,0.6460,-0.0762,-0.2094,-0.0179,
22.3680,0.4154,-0.1876,0.6460,-0.0652,-0.2970,-0.0280,
22.3690,0.8703,-0.1235,0.5946,-0.0652,-0.2970,-0.0280,
22.4220,0.8703,-0.1235,0.5946,-0.0652,-0.2970,-0.0280,
22.4240,0.8703,-0.1235,0.5946,-0.0652,-0.2970,-0.0280,
22.4250,0.8703,-0.1235,0.5946,-0.0652,-0.2970,-0.0280,
22.4260,0.8703,-0.1235,0.5946,-0.0611,-0.2449,-0.0635,
22.4280,1.1135,-0.0096,0.5922,-0.0611,-0.2449,-0.0635,
22.4800,1.1135,-0.0096,0.5922,-0.0611,-0.2449,-0.0635,
22.4820,1.1135,-0.0096,0.5922,-0.0611,-0.2449,-0.0635,
22.4830,1.1135,-0.0096,0.5922,-0.0611,-0.2449,-0.0635,
22.4850,1.1135,-0.0096,0.5922,-0.1702,-0.2241,-0.1364,
22.4860,0.5377,0.0668,0.6599,-0.1702,-0.2241,-0.1364,
22.5390,0.5377,0.0668,0.6599,-0.1702,-0.2241,-0.1364,
22.5410,0.5377,0.0668,0.6599,-0.1702,-0.2241,-0.1364,
22.5420,0.5377,0.0668,0.6599,-0.1702,-0.2241,-0.1364,
22.5430,0.5377,0.0668,0.6599,-0.1617,-0.3715,-0.1368,
22.5450,0.9703,-0.1812,1.0983,-0.1617,-0.3715,-0.1368,
22.5980,0.9703,-0.1812,1.0983,-0.1617,-0.3715,-0.1368,
22.6000,0.9703,-0.1812,1.0983,-0.1617,-0.3715,-0.1368,
22.6010,0.9703,-0.1812,1.0983,-0.1617,-0.3715,-0.1368,
22.6020,1.5067,2.2913,0.2018,-0.1617,-0.3715,-0.1368,
22.6050,1.5067,2.2913,0.2018,0.0322,-0.3805,-0.0728,
22.6570,-0.9276,0.7253,-0.9580,0.0322,-0.3805,-0.0728,
22.6600,-0.9276,0.7253,-0.9580,0.0322,-0.3805,-0.0728,
22.6610,-0.9276,0.7253,-0.9580,0.0322,-0.3805,-0.0728,
22.6620,-0.9276,0.7253,-0.9580,0.0322,-0.3805,-0.0728,
22.6630,-0.9276,0.7253,-0.9580,0.0635,0.1860,0.0143,
22.7140,-0.9276,0.7253,-0.9580,0.0635,0.1860,0.0143,
22.7170,-0.9276,0.7253,-0.9580,0.0635,0.1860,0.0143,
22.7180,-0.9276,0.7253,-0.9580,0.0635,0.1860,0.0143,
22.7190,-0.9276,0.7253,-0.9580,0.2419,-0.4786,0.0542,
22.7200,-1.0766,-1.3835,-0.5280,0.2419,-0.4786,0.0542,
22.7740,-1.0766,-1.3835,-0.5280,0.2419,-0.4786,0.0542,
22.7760,-1.0766,-1.3835,-0.5280,0.2419,-0.4786,0.0542,
22.7770,-1.0766,-1.3835,-0.5280,0.2419,-0.4786,0.0542,
22.7780,-1.0766,-1.3835,-0.5280,0.2309,-0.2359,-0.0643,
22.7800,-0.4114,-0.1800,-1.0754,0.2309,-0.2359,-0.0643,
22.8320,-0.4114,-0.1800,-1.0754,0.2309,-0.2359,-0.0643,
22.8340,-0.4114,-0.1800,-1.0754,0.2309,-0.2359,-0.0643,
22.8360,-0.4114,-0.1800,-1.0754,0.2309,-0.2359,-0.0643,
22.8370,-0.4114,-0.1800,-1.0754,0.0818,-0.1060,-0.0301,
22.8380,-1.3387,0.6808,-0.6686,0.0818,-0.1060,-0.0301,
22.8900,-1.3387,0.6808,-0.6686,0.0818,-0.1060,-0.0301,
22.8920,-1.3387,0.6808,-0.6686,0.0818,-0.1060,-0.0301,
22.8940,-1.3387,0.6808,-0.6686,0.0818,-0.1060,-0.0301,
22.8950,0.0150,-0.3447,-0.3824,0.0818,-0.1060,-0.0301,
22.8990,0.0150,-0.3447,-0.3824,-0.0664,-0.1023,-0.0451,
22.9480,0.0150,-0.3447,-0.3824,-0.0664,-0.1023,-0.0451,
22.9500,0.0150,-0.3447,-0.3824,-0.0664,-0.1023,-0.0451,
22.9510,0.0150,-0.3447,-0.3824,-0.0664,-0.1023,-0.0451,
22.9510,0.0150,-0.3447,-0.3824,-0.0664,-0.0246,-0.0496,
22.9530,-0.4460,-0.5872,0.0306,-0.0664,-0.0246,-0.0496,
23.0070,-0.4460,-0.5872,0.0306,-0.0664,-0.0246,-0.0496,
23.0110,-0.4460,-0.5872,0.0306,-0.0664,-0.0246,-0.0496,
23.0120,-0.4460,-0.5872,0.0306,-0.0664,-0.0246,-0.0496,
23.0130,-0.4460,-0.5872,0.0306,-0.0118,0.0638,-0.0329,
23.0140,-0.4103,-0.9139,0.3127,-0.0118,0.0638,-0.0329,
23.0670,-0.8013,-0.2717,0.0364,-0.0118,0.0638,-0.0329,
23.0690,-0.8013,-0.2717,0.0364,-0.0118,0.0638,-0.0329,
23.0700,-0.8013,-0.2717,0.0364,-0.0118,0.0638,-0.0329,
23.0720,-0.8013,-0.2717,0.0364,-0.0118,0.0638,-0.0329,
23.0730,-0.8013,-0.2717,0.0364,0.0488,0.0715,-0.0447,
23.1250,-0.8013,-0.2717,0.0364,0.0488,0.0715,-0.0447,
23.1280,-0.8013,-0.2717,0.0364,0.0488,0.0715,-0.0447,
23.1290,-0.8013,-0.2717,0.0364,0.0488,0.0715,-0.0447,
23.1300,-0.8013,-0.2717,0.0364,0.0146,0.0243,-0.0284,
23.1320,-0.8577,-0.0876,0.5195,0.0146,0.0243,-0.0284,
23.1840,-0.8577,-0.0876,0.5195,0.0146,0.0243,-0.0284,
23.1860,-0.8577,-0.0876,0.5195,0.0146,0.0243,-0.0284,
23.1870,-0.8577,-0.0876,0.5195,0.0146,0.0243,-0.0284,
23.1880,-0.8577,-0.0876,0.5195,0.0244,0.0891,0.0188,
23.1900,-0.2859,-0.0168,0.6009,0.0244,0.0891,0.0188,
23.2420,-0.2859,-0.0168,0.6009,0.0244,0.0891,0.0188,
23.2440,-0.2859,-0.0168,0.6009,0.0244,0.0891,0.0188,
23.2460,-0.2859,-0.0168,0.6009,0.0244,0.0891,0.0188,
23.2470,-0.2859,-0.0168,0.6009,0.0326,0.1343,0.0408,
23.2500,-0.2247,-0.3380,0.8166,0.0326,0.1343,0.0408,
23.3010,-0.2247,-0.3380,0.8166,0.0326,0.1343,0.0408,
23.3030,-0.2247,-0.3380,0.8166,0.0326,0.1343,0.0408,
23.3040,-0.2247,-0.3380,0.8166,0.0326,0.1343,0.0408,
23.3050,-0.2247,-0.3380,0.8166,0.0224,0.2560,0.0066,
23.3070,-0.2946,0.1401,0.9868,0.0224,0.2560,0.0066,
23.3590,-0.2946,0.1401,0.9868,0.0224,0.2560,0.0066,
23.3610,-0.2946,0.1401,0.9868,0.0224,0.2560,0.0066,
23.3620,-0.2946,0.1401,0.9868,0.0224,0.2560,0.0066,
23.3640,-0.2946,0.1401,0.9868,-0.0684,0.3668,0.0367,
23.3660,-0.3912,0.1084,1.2678,-0.0684,0.3668,0.0367,
23.4180,-0.3912,0.1084,1.2678,-0.0684,0.3668,0.0367,
23.4210,-0.3912,0.1084,1.2678,-0.0684,0.3668,0.0367,
23.4220,-0.3912,0.1084,1.2678,-0.0684,0.3668,0.0367,
23.4240,-0.3912,0.1084,1.2678,-0.1242,0.4344,0.0217,
23.4250,-0.6443,0.1947,1.5825,-0.1242,0.4344,0.0217,
23.4770,-0.6443,0.1947,1.5825,-0.1242,0.4344,0.0217,
23.4790,-0.6443,0.1947,1.5825,-0.1242,0.4344,0.0217,
23.4800,-0.6443,0.1947,1.5825,-0.1242,0.4344,0.0217,
23.4810,-0.6443,0.1947,1.5825,-0.0371,0.2609,-0.1038,
23.4830,-1.6663,1.6902,0.4952,-0.0371,0.2609,-0.1038,
23.5360,-1.6663,1.6902,0.4952,-0.0371,0.2609,-0.1038,
23.5380,-1.6663,1.6902,0.4952,-0.0371,0.2609,-0.1038,
23.5390,-1.6663,1.6902,0.4952,-0.0371,0.2609,-0.1038,
23.5400,-1.6663,1.6902,0.4952,-0.0012,-0.1060,-0.0411,
23.5420,-0.1044,1.7152,-1.8752,-0.0012,-0.1060,-0.0411,
23.5940,-0.1044,1.7152,-1.8752,-0.0012,-0.1060,-0.0411,
23.5960,-0.1044,1.7152,-1.8752,-0.0012,-0.1060,-0.0411,
23.5980,-0.1044,1.7152,-1.8752,-0.0012,-0.1060,-0.0411,
23.5990,-0.1044,1.7152,-1.8752,-0.2093,0.2817,0.0233,
23.6000,1.3717,-2.4977,-0.8048,-0.2093,0.2817,0.0233,
23.6530,1.3717,-2.4977,-0.8048,-0.2093,0.2817,0.0233,
23.6550,1.3717,-2.4977,-0.8048,-0.2093,0.2817,0.0233,
23.6560,1.3717,-2.4977,-0.8048,-0.2093,0.2817,0.0233,
23.6580,0.0277,-0.2792,-1.3588,-0.2093,0.2817,0.0233,
23.6590,0.0277,-0.2792,-1.3588,0.1547,0.3081,0.0595,
23.7100,0.0277,-0.2792,-1.3588,0.1547,0.3081,0.0595,
23.7120,0.0277,-0.2792,-1.3588,0.1547,0.3081,0.0595,
23.7140,0.0277,-0.2792,-1.3588,0.1547,0.3081,0.0595,
23.7150,0.0277,-0.2792,-1.3588,-0.0155,-0.1056,0.1801,
23.7160,0.6811,1.0579,-1.2612,-0.0155,-0.1056,0.1801,
23.7690,0.4851,-0.7024,-0.1668,-0.0155,-0.1056,0.1801,
23.7730,0.4851,-0.7024,-0.1668,-0.0155,-0.1056,0.1801,
23.7740,0.4851,-0.7024,-0.1668,-0.0155,-0.1056,0.1801,
23.7750,0.4851,-0.7024,-0.1668,-0.0155,-0.1056,0.1801,
23.7760,0.4851,-0.7024,-0.1668,-0.1059,0.0626,0.1731,
23.8280,0.4851,-0.7024,-0.1668,-0.1059,0.0626,0.1731,
23.8300,0.4851,-0.7024,-0.1668,-0.1059,0.0626,0.1731,
23.8310,0.4851,-0.7024,-0.1668,-0.1059,0.0626,0.1731,
23.8320,0.4851,-0.7024,-0.1668,0.0187,-0.0026,0.1556,
23.8340,0.7035,-0.4482,0.0135,0.0187,-0.0026,0.1556,
23.8870,0.7035,-0.4482,0.0135,0.0187,-0.0026,0.1556,
23.8890,0.7035,-0.4482,0.0135,0.0187,-0.0026,0.1556,
23.8900,0.7035,-0.4482,0.0135,0.0187,-0.0026,0.1556,
23.8910,0.8117,-0.0714,-0.2570,0.0187,-0.0026,0.1556,
23.8930,0.8117,-0.0714,-0.2570,0.0444,-0.0734,0.0815,
23.9450,0.8117,-0.0714,-0.2570,0.0444,-0.0734,0.0815,
23.9470,0.8117,-0.0714,-0.2570,0.0444,-0.0734,0.0815,
23.9480,0.8117,-0.0714,-0.2570,0.0444,-0.0734,0.0815,
23.9500,0.8117,-0.0714,-0.2570,0.0260,-0.0417,0.0571,
23.9510,0.5681,-0.4623,0.0055,0.0260,-0.0417,0.0571,
24.0040,0.5681,-0.4623,0.0055,0.0260,-0.0417,0.0571,
24.0070,0.5681,-0.4623,0.0055,0.0260,-0.0417,0.0571,
24.0080,0.5681,-0.4623,0.0055,0.0260,-0.0417,0.0571,
24.0090,0.5681,-0.4623,0.0055,0.0183,-0.0893,0.0306,
24.0110,0.4363,-0.1331,0.4244,0.0183,-0.0893,0.0306,
24.0620,0.4363,-0.1331,0.4244,0.0183,-0.0893,0.0306,
24.0640,0.4363,-0.1331,0.4244,0.0183,-0.0893,0.0306,
24.0650,0.4363,-0.1331,0.4244,0.0183,-0.0893,0.0306,
24.0670,0.4363,-0.1331,0.4244,-0.0045,-0.1292,0.0115,
24.0680,1.0354,-0.3058,0.9144,-0.0045,-0.1292,0.0115,
24.1210,1.0354,-0.3058,0.9144,-0.0045,-0.1292,0.0115,
24.1230,1.0354,-0.3058,0.9144,-0.0045,-0.1292,0.0115,
24.1240,1.0354,-0.3058,0.9144,-0.0045,-0.1292,0.0115,
24.1250,1.0354,-0.3058,0.9144,0.0517,-0.1699,-0.0712,
24.1270,0.6978,0.0337,0.8135,0.0517,-0.1699,-0.0712,
24.1790,0.6978,0.0337,0.8135,0.0517,-0.1699,-0.0712,
24.1810,0.6978,0.0337,0.8135,0.0517,-0.1699,-0.0712,
24.1830,0.6978,0.0337,0.8135,0.0517,-0.1699,-0.0712,
24.1840,0.6978,0.0337,0.8135,0.0106,-0.2200,-0.1258,
24.1860,0.6461,0.2052,0.9424,0.0106,-0.2200,-0.1258,
24.2380,0.6461,0.2052,0.9424,0.0106,-0.2200,-0.1258,
24.2400,0.6461,0.2052,0.9424,0.0106,-0.2200,-0.1258,
24.2410,0.6461,0.2052,0.9424,0.0106,-0.2200,-0.1258,
24.2420,0.6461,0.2052,0.9424,-0.0436,-0.3475,-0.1433,
24.2440,0.7204,0.2094,1.2562,-0.0436,-0.3475,-0.1433,
24.2960,0.7204,0.2094,1.2562,-0.0436,-0.3475,-0.1433,
24.2980,0.7204,0.2094,1.2562,-0.0436,-0.3475,-0.1433,
24.2990,0.7204,0.2094,1.2562,-0.0436,-0.3475,-0.1433,
24.3010,0.7204,0.2094,1.2562,0.0570,-0.3776,-0.0366,
24.3030,1.5613,1.4977,0.8284,0.0570,-0.3776,-0.0366,
24.3550,1.5613,1.4977,0.8284,0.0570,-0.3776,-0.0366,
24.3580,1.5613,1.4977,0.8284,0.0570,-0.3776,-0.0366,
24.3590,1.5613,1.4977,0.8284,0.0570,-0.3776,-0.0366,
24.3600,1.5613,1.4977,0.8284,0.0936,0.1990,0.1352,
24.3620,-0.5905,2.1047,-2.2677,0.0936,0.1990,0.1352,
24.4140,-0.5905,2.1047,-2.2677,0.0936,0.1990,0.1352,
24.4160,-0.5905,2.1047,-2.2677,0.0936,0.1990,0.1352,
24.4170,-0.5905,2.1047,-2.2677,0.0936,0.1990,0.1352,
24.4180,-0.5905,2.1047,-2.2677,0.0574,-0.2090,0.2037,
24.4200,-0.7899,-1.7586,-0.1546,0.0574,-0.2090,0.2037,
24.4710,-0.7899,-1.7586,-0.1546,0.0574,-0.2090,0.2037,
24.4730,-0.7899,-1.7586,-0.1546,0.0574,-0.2090,0.2037,
24.4730,-0.7899,-1.7586,-0.1546,0.0574,-0.2090,0.2037,
24.4740,-0.7899,-1.7586,-0.1546,0.2240,-0.1887,-0.0504,
24.4740,-0.5362,-0.2423,-1.3759,0.2240,-0.1887,-0.0504,
24.5300,-0.5362,-0.2423,-1.3759,0.2240,-0.1887,-0.0504,
24.5310,-0.5362,-0.2423,-1.3759,0.2240,-0.1887,-0.0504,
24.5310,-0.5362,-0.2423,-1.3759,0.2240,-0.1887,-0.0504,
24.5320,-0.5362,-0.2423,-1.3759,0.0696,0.0561,-0.1213,
24.5330,-1.3893,0.4541,-0.6217,0.0696,0.0561,-0.1213,
24.5890,-1.3893,0.4541,-0.6217,0.0696,0.0561,-0.1213,
24.5930,-1.3893,0.4541,-0.6217,0.0696,0.0561,-0.1213,
24.5940,-1.3893,0.4541,-0.6217,0.0696,0.0561,-0.1213,
24.5950,-1.3893,0.4541,-0.6217,-0.0411,-0.0633,-0.1087,
24.5970,-0.3833,-0.2732,-0.4112,-0.0411,-0.0633,-0.1087,
24.6470,-0.3833,-0.2732,-0.4112,-0.0411,-0.0633,-0.1087,
24.6500,-0.3833,-0.2732,-0.4112,-0.0411,-0.0633,-0.1087,
24.6510,-0.3833,-0.2732,-0.4112,-0.0411,-0.0633,-0.1087,
24.6530,-0.7237,-0.6726,0.1163,-0.0411,-0.0633,-0.1087,
24.6540,-0.7237,-0.6726,0.1163,-0.0330,-0.0217,-0.1099,
24.7070,-0.7237,-0.6726,0.1163,-0.0330,-0.0217,-0.1099,
24.7080,-0.7237,-0.6726,0.1163,-0.0330,-0.0217,-0.1099,
24.7100,-0.7237,-0.6726,0.1163,-0.0330,-0.0217,-0.1099,
24.7110,-0.7237,-0.6726,0.1163,0.0289,0.0031,-0.0451,
24.7120,-0.3784,-0.4649,-0.0058,0.0289,0.0031,-0.0451,
24.7650,-0.3784,-0.4649,-0.0058,0.0289,0.0031,-0.0451,
24.7670,-0.3784,-0.4649,-0.0058,0.0289,0.0031,-0.0451,
24.7690,-0.3784,-0.4649,-0.0058,0.0289,0.0031,-0.0451,
24.7700,-0.3784,-0.4649,-0.0058,0.0342,0.0100,-0.0207,
24.7710,-0.4986,-0.2327,0.1552,0.0342,0.0100,-0.0207,
24.8230,-0.4986,-0.2327,0.1552,0.0342,0.0100,-0.0207,
24.8250,-0.4986,-0.2327,0.1552,0.0342,0.0100,-0.0207,
24.8270,-0.4986,-0.2327,0.1552,0.0342,0.0100,-0.0207,
24.8280,-0.4986,-0.2327,0.1552,0.0358,0.0439,-0.0321,
24.8290,-0.5701,-0.3878,0.3661,0.0358,0.0439,-0.0321,
24.8830,-0.5701,-0.3878,0.3661,0.0358,0.0439,-0.0321,
24.8850,-0.5701,-0.3878,0.3661,0.0358,0.0439,-0.0321,
24.8860,-0.5701,-0.3878,0.3661,0.0358,0.0439,-0.0321,
24.8880,-0.5701,-0.3878,0.3661,0.0167,0.0785,-0.0403,
24.8890,-0.4050,0.0612,0.6725,0.0167,0.0785,-0.0403,
24.9400,-0.4050,0.0612,0.6725,0.0167,0.0785,-0.0403,
24.9420,-0.4050,0.0612,0.6725,0.0167,0.0785,-0.0403,
24.9430,-0.4050,0.0612,0.6725,0.0167,0.0785,-0.0403,
24.9450,-0.4050,0.0612,0.6725,-0.0265,0.1782,-0.0134,
24.9460,-0.4133,-0.1960,0.8687,-0.0265,0.1782,-0.0134,
24.9990,-0.4133,-0.1960,0.8687,-0.0265,0.1782,-0.0134,
25.0020,-0.4133,-0.1960,0.8687,-0.0265,0.1782,-0.0134,
25.0040,-0.4133,-0.1960,0.8687,-0.0265,0.1782,-0.0134,
25.0090,-0.4637,-0.2528,0.9773,-0.0265,0.1782,-0.0134,
25.0140,-0.4637,-0.2528,0.9773,0.0073,0.2210,0.0155,
25.0570,-0.4637,-0.2528,0.9773,0.0073,0.2210,0.0155,
25.0590,-0.4637,-0.2528,0.9773,0.0073,0.2210,0.0155,
25.0600,-0.4637,-0.2528,0.9773,0.0073,0.2210,0.0155,
25.0620,-0.4637,-0.2528,0.9773,-0.0305,0.3053,0.0440,
25.0630,-0.2811,-0.0139,0.9504,-0.0305,0.3053,0.0440,
25.1170,-0.2811,-0.0139,0.9504,-0.0305,0.3053,0.0440,
25.1190,-0.2811,-0.0139,0.9504,-0.0305,0.3053,0.0440,
25.1200,-0.2811,-0.0139,0.9504,-0.0305,0.3053,0.0440,
25.1220,-0.7661,0.1628,1.4140,-0.0305,0.3053,0.0440,
25.1240,-0.7661,0.1628,1.4140,-0.0888,0.4515,0.0510,
25.1750,-0.7661,0.1628,1.4140,-0.0888,0.4515,0.0510,
25.1780,-0.7661,0.1628,1.4140,-0.0888,0.4515,0.0510,
25.1790,-0.7661,0.1628,1.4140,-0.0888,0.4515,0.0510,
25.1810,-0.7661,0.1628,1.4140,0.0953,0.2805,-0.0944,
25.1820,-2.1417,2.6582,-0.3559,0.0953,0.2805,-0.0944,
25.2340,-2.1417,2.6582,-0.3559,0.0953,0.2805,-0.0944,
25.2360,-2.1417,2.6582,-0.3559,0.0953,0.2805,-0.0944,
25.2370,-2.1417,2.6582,-0.3559,0.0953,0.2805,-0.0944,
25.2380,-2.1417,2.6582,-0.3559,-0.0794,-0.0649,-0.0166,
25.2400,0.3407,1.0014,-0.8865,-0.0794,-0.0649,-0.0166,
25.2920,0.3407,1.0014,-0.8865,-0.0794,-0.0649,-0.0166,
25.2940,0.3407,1.0014,-0.8865,-0.0794,-0.0649,-0.0166,
25.2950,0.3407,1.0014,-0.8865,-0.0794,-0.0649,-0.0166,
25.2970,0.3407,1.0014,-0.8865,-0.1039,0.2715,-0.0745,
25.2980,0.9750,-1.8806,-0.0386,-0.1039,0.2715,-0.0745,
25.3510,0.9750,-1.8806,-0.0386,-0.1039,0.2715,-0.0745,
25.3530,0.9750,-1.8806,-0.0386,-0.1039,0.2715,-0.0745,
25.3540,0.9750,-1.8806,-0.0386,-0.1039,0.2715,-0.0745,
25.3550,0.9750,-1.8806,-0.0386,0.1812,0.2515,0.0233,
25.3570,0.2007,-0.7465,-1.6161,0.1812,0.2515,0.0233,
25.4090,0.2007,-0.7465,-1.6161,0.1812,0.2515,0.0233,
25.4110,0.2007,-0.7465,-1.6161,0.1812,0.2515,0.0233,
25.4120,0.2007,-0.7465,-1.6161,0.1812,0.2515,0.0233,
25.4140,0.2007,-0.7465,-1.6161,-0.0049,-0.0991,0.0379,
25.4150,1.0193,0.7063,-1.3447,-0.0049,-0.0991,0.0379,
25.4670,1.0193,0.7063,-1.3447,-0.0049,-0.0991,0.0379,
25.4690,1.0193,0.7063,-1.3447,-0.0049,-0.0991,0.0379,
25.4710,1.0193,0.7063,-1.3447,-0.0049,-0.0991,0.0379,
25.4720,1.0193,0.7063,-1.3447,-0.1511,0.0174,0.0563,
25.4730,0.5663,-0.1303,-0.5673,-0.1511,0.0174,0.0563,
25.5260,0.5663,-0.1303,-0.5673,-0.1511,0.0174,0.0563,
25.5290,0.5663,-0.1303,-0.5673,-0.1511,0.0174,0.0563,
25.5300,0.5663,-0.1303,-0.5673,-0.1511,0.0174,0.0563,
25.5320,0.5663,-0.1303,-0.5673,-0.1083,0.0162,0.0778,
25.5330,0.3763,-0.6841,-0.0592,-0.1083,0.0162,0.0778,
25.5860,0.3763,-0.6841,-0.0592,-0.1083,0.0162,0.0778,
25.5880,0.3763,-0.6841,-0.0592,-0.1083,0.0162,0.0778,
25.5890,0.3763,-0.6841,-0.0592,-0.1083,0.0162,0.0778,
25.5900,0.3763,-0.6841,-0.0592,-0.0065,-0.0698,0.0762,
25.5920,0.5462,-0.1770,-0.1747,-0.0065,-0.0698,0.0762,
25.6440,0.5462,-0.1770,-0.1747,-0.0065,-0.0698,0.0762,
25.6460,0.5462,-0.1770,-0.1747,-0.0065,-0.0698,0.0762,
25.6470,0.5462,-0.1770,-0.1747,-0.0065,-0.0698,0.0762,
25.6480,0.5462,-0.1770,-0.1747,-0.0350,-0.1284,0.0913,
25.6500,0.6544,0.0263,0.0279,-0.0350,-0.1284,0.0913,
25.7020,0.6544,0.0263,0.0279,-0.0350,-0.1284,0.0913,
25.7040,0.6544,0.0263,0.0279,-0.0350,-0.1284,0.0913,
25.7050,0.6544,0.0263,0.0279,-0.0350,-0.1284,0.0913,
25.7060,0.8972,-0.5611,0.3629,-0.0350,-0.1284,0.0913,
25.7080,0.8972,-0.5611,0.3629,-0.0607,-0.1581,0.0546,
25.7610,0.8972,-0.5611,0.3629,-0.0607,-0.1581,0.0546,
25.7640,0.8972,-0.5611,0.3629,-0.0607,-0.1581,0.0546,
25.7660,0.8972,-0.5611,0.3629,-0.0607,-0.1581,0.0546,
25.7670,0.5563,-0.2709,0.7817,-0.0607,-0.1581,0.0546,
25.7690,0.5563,-0.2709,0.7817,-0.0415,-0.1883,-0.0150,
25.8190,0.5563,-0.2709,0.7817,-0.0415,-0.1883,-0.0150,
25.8230,0.5563,-0.2709,0.7817,-0.0415,-0.1883,-0.0150,
25.8250,0.5563,-0.2709,0.7817,-0.0415,-0.1883,-0.0150,
25.8260,0.5563,-0.2709,0.7817,-0.0077,-0.2669,-0.0415,
25.8270,0.9909,-0.0562,0.8686,-0.0077,-0.2669,-0.0415,
25.8780,0.9909,-0.0562,0.8686,-0.0077,-0.2669,-0.0415,
25.8800,0.9909,-0.0562,0.8686,-0.0077,-0.2669,-0.0415,
25.8810,0.9909,-0.0562,0.8686,-0.0077,-0.2669,-0.0415,
25.8820,0.9909,-0.0562,0.8686,-0.0008,-0.2054,-0.0602,
25.8840,0.9527,0.3156,0.8227,-0.0008,-0.2054,-0.0602,
25.9370,0.9527,0.3156,0.8227,-0.0008,-0.2054,-0.0602,
25.9390,0.9527,0.3156,0.8227,-0.0008,-0.2054,-0.0602,
25.9400,0.9527,0.3156,0.8227,-0.0008,-0.2054,-0.0602,
25.9410,0.9527,0.3156,0.8227,-0.0318,-0.1980,-0.0590,
25.9430,1.0217,0.3921,1.0504,-0.0318,-0.1980,-0.0590,
25.9950,1.0217,0.3921,1.0504,-0.0318,-0.1980,-0.0590,
25.9970,1.0217,0.3921,1.0504,-0.0318,-0.1980,-0.0590,
25.9980,1.0217,0.3921,1.0504,-0.0318,-0.1980,-0.0590,
25.9990,1.0217,0.3921,1.0504,-0.0297,-0.1728,-0.1103,
26.0010,1.4496,0.3467,1.2019,-0.0297,-0.1728,-0.1103,
26.0540,1.4496,0.3467,1.2019,-0.0297,-0.1728,-0.1103,
26.0560,1.4496,0.3467,1.2019,-0.0297,-0.1728,-0.1103,
26.0570,1.4496,0.3467,1.2019,-0.0297,-0.1728,-0.1103,
26.0590,1.4496,0.3467,1.2019,0.1783,0.0772,-0.1213,
26.0620,0.6450,2.2712,-1.1106,0.1783,0.0772,-0.1213,
26.1110,0.6450,2.2712,-1.1106,0.1783,0.0772,-0.1213,
26.1120,0.6450,2.2712,-1.1106,0.1783,0.0772,-0.1213,
