
time,ax,ay,az,wx,wy,wz,
0.0440,0.0000,0.0000,0.0000,0.0208,0.0492,0.0217,
0.0830,0.0000,0.0000,0.0000,0.0208,0.0492,0.0217,
0.0830,0.0000,0.0000,0.0000,0.0208,0.0492,0.0217,
0.0840,0.0000,0.0000,0.0000,0.0208,0.0492,0.0217,
0.0840,0.0000,0.0000,0.0000,0.0208,0.0492,0.0217,
0.0840,0.0000,0.0000,0.0000,0.0067,0.0681,0.0144,
0.0850,0.0000,0.0000,-0.0000,0.0067,0.0681,0.0144,
0.1220,0.0000,0.0000,-0.0000,0.0152,0.0449,0.0083,
0.1230,-0.1707,-0.0476,-0.1959,0.0152,0.0449,0.0083,
0.1610,-0.1707,-0.0476,-0.1959,0.0152,0.0449,0.0083,
0.1620,-0.1707,-0.0476,-0.1959,0.0152,0.0449,0.0083,
0.1630,-0.1707,-0.0476,-0.1959,0.0152,0.0449,0.0083,
0.1630,-0.1707,-0.0476,-0.1959,0.0152,0.0449,0.0083,
0.1640,-0.1707,-0.0476,-0.1959,0.0128,-0.0100,0.0242,
0.2000,-0.1707,-0.0476,-0.1959,0.0867,0.0144,0.0248,
0.2020,-0.0238,-0.0871,0.0384,0.0867,0.0144,0.0248,
0.2400,-0.0238,-0.0871,0.0384,0.0867,0.0144,0.0248,
0.2410,-0.0238,-0.0871,0.0384,0.0867,0.0144,0.0248,
0.2410,-0.0238,-0.0871,0.0384,0.0867,0.0144,0.0248,
0.2420,-0.0238,-0.0871,0.0384,0.0867,0.0144,0.0248,
0.2420,0.2622,0.3256,-0.1444,0.0867,0.0144,0.0248,
0.2430,0.2622,0.3256,-0.1444,0.0922,0.0211,0.0278,
0.2780,0.2622,0.3256,-0.1444,0.0794,0.0590,0.0083,
0.3180,0.2622,0.3256,-0.1444,0.0794,0.0590,0.0083,
0.3190,0.2622,0.3256,-0.1444,0.0794,0.0590,0.0083,
0.3190,0.2622,0.3256,-0.1444,0.0794,0.0590,0.0083,
0.3200,0.2622,0.3256,-0.1444,0.0794,0.0590,0.0083,
0.3200,0.2622,0.3256,-0.1444,0.0782,0.1109,-0.0002,
0.3210,0.3297,-0.0428,-0.1780,0.0782,0.1109,-0.0002,
0.3590,-0.0257,-0.1172,-0.2772,0.0782,0.1109,-0.0002,
0.3600,-0.0257,-0.1172,-0.2772,0.0995,0.1164,-0.0345,
0.3960,-0.0257,-0.1172,-0.2772,0.0995,0.1164,-0.0345,
0.3970,-0.0257,-0.1172,-0.2772,0.0995,0.1164,-0.0345,
0.3970,-0.0257,-0.1172,-0.2772,0.0995,0.1164,-0.0345,
0.3980,-0.0257,-0.1172,-0.2772,0.0995,0.1164,-0.0345,
0.3980,-0.0257,-0.1172,-0.2772,0.0769,0.0700,-0.0265,
0.4350,-0.0257,-0.1172,-0.2772,0.0323,-0.0278,0.0022,
0.4360,0.0572,-0.0378,-0.3092,0.0323,-0.0278,0.0022,
0.4740,0.0572,-0.0378,-0.3092,0.0323,-0.0278,0.0022,
0.4750,0.0572,-0.0378,-0.3092,0.0323,-0.0278,0.0022,
0.4760,0.0572,-0.0378,-0.3092,0.0323,-0.0278,0.0022,
0.4760,0.0572,-0.0378,-0.3092,0.0323,-0.0278,0.0022,
0.4760,0.0572,-0.0378,-0.3092,-0.0049,-0.1053,0.0230,
0.4770,0.3169,0.0001,-0.0791,-0.0049,-0.1053,0.0230,
0.5130,0.3169,0.0001,-0.0791,0.0110,-0.1017,0.0376,
0.5520,0.3169,0.0001,-0.0791,0.0110,-0.1017,0.0376,
0.5530,0.3169,0.0001,-0.0791,0.0110,-0.1017,0.0376,
0.5530,0.3169,0.0001,-0.0791,0.0110,-0.1017,0.0376,
0.5540,0.3169,0.0001,-0.0791,0.0110,-0.1017,0.0376,
0.5540,0.3169,0.0001,-0.0791,0.0006,-0.0223,0.0315,
0.5550,0.5717,0.1843,-0.2878,0.0006,-0.0223,0.0315,
0.5910,0.5717,0.1843,-0.2878,-0.0275,0.0138,0.0217,
0.5920,0.2395,-0.0602,-0.1065,-0.0275,0.0138,0.0217,
0.6310,0.2395,-0.0602,-0.1065,-0.0275,0.0138,0.0217,
0.6310,0.2395,-0.0602,-0.1065,-0.0275,0.0138,0.0217,
0.6320,0.2395,-0.0602,-0.1065,-0.0275,0.0138,0.0217,
0.6320,0.2395,-0.0602,-0.1065,-0.0275,0.0138,0.0217,
0.6330,0.2395,-0.0602,-0.1065,-0.0232,0.0217,0.0083,
0.6690,0.2395,-0.0602,-0.1065,-0.0379,0.0052,-0.0082,
0.6700,0.0034,-0.0486,-0.0489,-0.0379,0.0052,-0.0082,
0.7090,0.0034,-0.0486,-0.0489,-0.0379,0.0052,-0.0082,
0.7100,0.0034,-0.0486,-0.0489,-0.0379,0.0052,-0.0082,
0.7110,0.0034,-0.0486,-0.0489,-0.0379,0.0052,-0.0082,
0.7110,0.0034,-0.0486,-0.0489,-0.0379,0.0052,-0.0082,
0.7120,0.0034,-0.0486,-0.0489,-0.0379,-0.0119,-0.0100,
0.7120,0.0082,-0.0193,0.0029,-0.0379,-0.0119,-0.0100,
0.7480,0.0082,-0.0193,0.0029,-0.0306,-0.0161,-0.0143,
0.7860,0.0082,-0.0193,0.0029,-0.0306,-0.0161,-0.0143,
0.7870,0.0082,-0.0193,0.0029,-0.0306,-0.0161,-0.0143,
0.7880,0.0082,-0.0193,0.0029,-0.0306,-0.0161,-0.0143,
0.7880,0.0082,-0.0193,0.0029,-0.0306,-0.0161,-0.0143,
0.7890,0.0082,-0.0193,0.0029,-0.0293,-0.0174,-0.0149,
0.7890,-0.0408,-0.0155,-0.0026,-0.0293,-0.0174,-0.0149,
0.8250,-0.0408,-0.0155,-0.0026,-0.0251,-0.0229,-0.0155,
0.8260,-0.0650,0.0432,0.0755,-0.0251,-0.0229,-0.0155,
0.8640,-0.0650,0.0432,0.0755,-0.0251,-0.0229,-0.0155,
0.8650,-0.0650,0.0432,0.0755,-0.0251,-0.0229,-0.0155,
0.8660,-0.0650,0.0432,0.0755,-0.0251,-0.0229,-0.0155,
0.8660,-0.0650,0.0432,0.0755,-0.0251,-0.0229,-0.0155,
0.8670,-0.0650,0.0432,0.0755,-0.0196,-0.0296,-0.0173,
0.9040,-0.0650,0.0432,0.0755,-0.0202,-0.0369,-0.0186,
0.9060,-0.0387,0.0456,0.0567,-0.0202,-0.0369,-0.0186,
0.9430,-0.0387,0.0456,0.0567,-0.0202,-0.0369,-0.0186,
0.9430,-0.0387,0.0456,0.0567,-0.0202,-0.0369,-0.0186,
0.9440,-0.0387,0.0456,0.0567,-0.0202,-0.0369,-0.0186,
0.9440,-0.0387,0.0456,0.0567,-0.0202,-0.0369,-0.0186,
0.9450,-0.0387,0.0456,0.0567,-0.0373,-0.0308,-0.0241,
0.9450,-0.0349,-0.0183,0.1325,-0.0373,-0.0308,-0.0241,
0.9810,-0.0349,-0.0183,0.1325,-0.0422,-0.0314,-0.0271,
0.9930,-0.0349,-0.0183,0.1325,-0.0422,-0.0314,-0.0271,
0.9940,-0.0349,-0.0183,0.1325,-0.0422,-0.0314,-0.0271,
1.0210,-0.0349,-0.0183,0.1325,-0.0440,-0.0369,-0.0314,
1.0220,-0.0918,0.0321,0.1810,-0.0440,-0.0369,-0.0314,
1.0600,-0.0918,0.0321,0.1810,-0.0385,-0.0485,-0.0332,
1.0610,-0.1566,-0.0423,0.1386,-0.0385,-0.0485,-0.0332,
1.0620,-0.1566,-0.0423,0.1386,-0.0385,-0.0485,-0.0332,
1.0620,-0.1566,-0.0423,0.1386,-0.0385,-0.0485,-0.0332,
1.0630,-0.1566,-0.0423,0.1386,-0.0385,-0.0485,-0.0332,
1.0630,-0.1566,-0.0423,0.1386,-0.0385,-0.0485,-0.0332,
1.0990,-0.1566,-0.0423,0.1386,-0.0208,-0.0632,-0.0375,
1.1380,-0.1566,-0.0423,0.1386,-0.0074,-0.0626,-0.0332,
1.1400,-0.1566,-0.0423,0.1386,-0.0074,-0.0626,-0.0332,
1.1400,-0.1566,-0.0423,0.1386,-0.0074,-0.0626,-0.0332,
1.1410,-0.1566,-0.0423,0.1386,-0.0074,-0.0626,-0.0332,
1.1410,-0.1566,-0.0423,0.1386,-0.0074,-0.0626,-0.0332,
1.1420,-0.0743,0.0185,-0.0194,-0.0074,-0.0626,-0.0332,
1.1770,-0.0743,0.0185,-0.0194,-0.0177,-0.0400,-0.0308,
1.1780,-0.0159,0.0549,0.0465,-0.0177,-0.0400,-0.0308,
1.2150,-0.0159,0.0549,0.0465,-0.0245,-0.0247,-0.0284,
1.2160,-0.0159,0.0549,0.0465,-0.0245,-0.0247,-0.0284,
1.2170,-0.0159,0.0549,0.0465,-0.0245,-0.0247,-0.0284,
1.2170,-0.0159,0.0549,0.0465,-0.0245,-0.0247,-0.0284,
1.2180,-0.0159,0.0549,0.0465,-0.0245,-0.0247,-0.0284,
1.2550,-0.0159,0.0549,0.0465,-0.0293,-0.0009,-0.0259,
1.2560,-0.0588,-0.0508,0.0878,-0.0293,-0.0009,-0.0259,
1.2940,-0.0588,-0.0508,0.0878,-0.0208,-0.0064,-0.0259,
1.2950,-0.0588,-0.0508,0.0878,-0.0208,-0.0064,-0.0259,
1.2950,-0.0588,-0.0508,0.0878,-0.0208,-0.0064,-0.0259,
1.2960,-0.0588,-0.0508,0.0878,-0.0208,-0.0064,-0.0259,
1.2960,-0.0588,-0.0508,0.0878,-0.0208,-0.0064,-0.0259,
1.2970,-0.1371,-0.0223,0.0676,-0.0208,-0.0064,-0.0259,
1.3330,-0.1371,-0.0223,0.0676,-0.0159,-0.0052,-0.0259,
1.3720,-0.1371,-0.0223,0.0676,-0.0129,-0.0229,-0.0173,
1.3730,-0.1371,-0.0223,0.0676,-0.0129,-0.0229,-0.0173,
1.3740,-0.1371,-0.0223,0.0676,-0.0129,-0.0229,-0.0173,
1.3750,-0.1371,-0.0223,0.0676,-0.0129,-0.0229,-0.0173,
1.3750,-0.1371,-0.0223,0.0676,-0.0129,-0.0229,-0.0173,
1.3760,-0.0813,-0.0069,-0.0302,-0.0129,-0.0229,-0.0173,
1.4110,-0.0813,-0.0069,-0.0302,-0.0159,-0.0143,-0.0131,
1.4120,-0.0419,-0.0063,-0.0220,-0.0159,-0.0143,-0.0131,
1.4510,-0.0419,-0.0063,-0.0220,-0.0153,-0.0094,-0.0094,
1.4510,-0.0419,-0.0063,-0.0220,-0.0153,-0.0094,-0.0094,
1.4510,-0.0419,-0.0063,-0.0220,-0.0153,-0.0094,-0.0094,
1.4510,-0.0419,-0.0063,-0.0220,-0.0153,-0.0094,-0.0094,
1.4520,-0.0419,-0.0063,-0.0220,-0.0153,-0.0094,-0.0094,
1.4900,-0.0419,-0.0063,-0.0220,-0.0153,-0.0143,-0.0057,
1.4910,-0.0860,0.0231,-0.0490,-0.0153,-0.0143,-0.0057,
1.5280,-0.0860,0.0231,-0.0490,-0.0220,-0.0217,-0.0039,
1.5290,-0.0860,0.0231,-0.0490,-0.0220,-0.0217,-0.0039,
1.5290,-0.0860,0.0231,-0.0490,-0.0220,-0.0217,-0.0039,
1.5300,-0.0860,0.0231,-0.0490,-0.0220,-0.0217,-0.0039,
1.5300,-0.0860,0.0231,-0.0490,-0.0220,-0.0217,-0.0039,
1.5310,-0.0306,-0.0270,0.0482,-0.0220,-0.0217,-0.0039,
1.5670,-0.0306,-0.0270,0.0482,-0.0177,-0.0210,-0.0039,
1.6070,-0.0306,-0.0270,0.0482,-0.0275,-0.0217,-0.0009,
1.6080,-0.0306,-0.0270,0.0482,-0.0275,-0.0217,-0.0009,
1.6080,-0.0306,-0.0270,0.0482,-0.0275,-0.0217,-0.0009,
1.6090,-0.0306,-0.0270,0.0482,-0.0275,-0.0217,-0.0009,
1.6090,-0.0306,-0.0270,0.0482,-0.0275,-0.0217,-0.0009,
1.6100,-0.0668,0.0141,0.0271,-0.0275,-0.0217,-0.0009,
1.6450,-0.0668,0.0141,0.0271,-0.0232,-0.0327,0.0016,
1.6460,-0.0314,0.0220,0.0209,-0.0232,-0.0327,0.0016,
1.6850,-0.0314,0.0220,0.0209,-0.0287,-0.0265,0.0065,
1.6860,-0.0314,0.0220,0.0209,-0.0287,-0.0265,0.0065,
1.6870,-0.0314,0.0220,0.0209,-0.0287,-0.0265,0.0065,
1.6870,-0.0314,0.0220,0.0209,-0.0287,-0.0265,0.0065,
1.6880,-0.0314,0.0220,0.0209,-0.0287,-0.0265,0.0065,
1.7230,-0.0314,0.0220,0.0209,-0.0336,-0.0278,0.0077,
1.7240,-0.0149,0.0101,0.0149,-0.0336,-0.0278,0.0077,
1.7620,-0.0149,0.0101,0.0149,-0.0324,-0.0223,0.0126,
1.7630,-0.0149,0.0101,0.0149,-0.0324,-0.0223,0.0126,
1.7640,-0.0149,0.0101,0.0149,-0.0324,-0.0223,0.0126,
1.7640,-0.0149,0.0101,0.0149,-0.0324,-0.0223,0.0126,
1.7650,-0.0149,0.0101,0.0149,-0.0324,-0.0223,0.0126,
1.7650,0.0415,-0.0092,0.0310,-0.0324,-0.0223,0.0126,
1.8020,0.0415,-0.0092,0.0310,-0.0355,-0.0100,0.0114,
1.8400,0.0415,-0.0092,0.0310,-0.0336,0.0009,0.0132,
1.8410,0.0415,-0.0092,0.0310,-0.0336,0.0009,0.0132,
1.8420,0.0415,-0.0092,0.0310,-0.0336,0.0009,0.0132,
1.8420,0.0415,-0.0092,0.0310,-0.0336,0.0009,0.0132,
1.8430,0.0415,-0.0092,0.0310,-0.0336,0.0009,0.0132,
1.8430,0.0171,-0.0214,0.0538,-0.0336,0.0009,0.0132,
1.8790,0.0171,-0.0214,0.0538,-0.0257,0.0150,0.0107,
1.8800,-0.0057,-0.0161,0.0085,-0.0257,0.0150,0.0107,
1.8990,-0.0057,-0.0161,0.0085,-0.0257,0.0150,0.0107,
1.9000,-0.0057,-0.0161,0.0085,-0.0257,0.0150,0.0107,
1.9190,-0.0057,-0.0161,0.0085,-0.0208,0.0193,0.0107,
1.9580,-0.0057,-0.0161,0.0085,-0.0208,0.0193,0.0107,
1.9590,-0.0057,-0.0161,0.0085,-0.0208,0.0193,0.0107,
1.9590,-0.0057,-0.0161,0.0085,-0.0208,0.0193,0.0107,
1.9600,-0.0057,-0.0161,0.0085,-0.0208,0.0193,0.0107,
1.9600,-0.0057,-0.0161,0.0085,-0.0147,0.0217,0.0132,
1.9610,-0.0129,-0.0289,0.0114,-0.0147,0.0217,0.0132,
1.9960,-0.0129,-0.0289,0.0114,-0.0092,0.0242,0.0132,
1.9970,0.0117,-0.0010,0.0185,-0.0092,0.0242,0.0132,
2.0340,0.0117,-0.0010,0.0185,-0.0080,0.0309,0.0132,
2.0350,0.0117,-0.0010,0.0185,-0.0080,0.0309,0.0132,
2.0350,0.0117,-0.0010,0.0185,-0.0080,0.0309,0.0132,
2.0360,0.0117,-0.0010,0.0185,-0.0080,0.0309,0.0132,
2.0550,-0.0172,-0.0201,0.0288,-0.0080,0.0309,0.0132,
2.0560,-0.0172,-0.0201,0.0288,-0.0061,0.0303,0.0120,
2.0940,-0.0172,-0.0201,0.0288,-0.0061,0.0303,0.0120,
2.0950,-0.0172,-0.0201,0.0288,-0.0061,0.0303,0.0120,
2.0970,-0.0172,-0.0201,0.0288,-0.0061,0.0303,0.0120,
2.0980,-0.0172,-0.0201,0.0288,-0.0061,0.0303,0.0120,
2.0980,-0.0172,-0.0201,0.0288,-0.0000,0.0303,0.0089,
2.1340,-0.0184,0.0094,0.0155,-0.0000,0.0303,0.0089,
2.1340,-0.0184,0.0094,0.0155,0.0018,0.0211,0.0126,
2.1720,-0.0184,0.0094,0.0155,0.0018,0.0211,0.0126,
2.1730,-0.0184,0.0094,0.0155,0.0018,0.0211,0.0126,
2.1740,-0.0184,0.0094,0.0155,0.0018,0.0211,0.0126,
2.1740,-0.0184,0.0094,0.0155,0.0018,0.0211,0.0126,
2.1750,-0.0184,0.0094,0.0155,0.0012,0.0254,0.0138,
2.1760,0.0190,-0.0149,-0.0063,0.0012,0.0254,0.0138,
2.2110,0.0190,-0.0149,-0.0063,0.0091,0.0199,0.0132,
2.2500,0.0190,-0.0149,-0.0063,0.0091,0.0199,0.0132,
2.2500,0.0190,-0.0149,-0.0063,0.0091,0.0199,0.0132,
2.2510,0.0190,-0.0149,-0.0063,0.0091,0.0199,0.0132,
2.2510,0.0190,-0.0149,-0.0063,0.0091,0.0199,0.0132,
2.2510,0.0190,-0.0149,-0.0063,0.0116,0.0321,0.0071,
2.2520,0.0195,-0.0034,-0.0064,0.0116,0.0321,0.0071,
2.2890,0.0195,-0.0034,-0.0064,0.0098,0.0303,0.0089,
2.2900,0.0177,-0.0107,-0.0299,0.0098,0.0303,0.0089,
2.3290,0.0177,-0.0107,-0.0299,0.0098,0.0303,0.0089,
2.3300,0.0177,-0.0107,-0.0299,0.0098,0.0303,0.0089,
2.3300,0.0177,-0.0107,-0.0299,0.0098,0.0303,0.0089,
2.3300,0.0177,-0.0107,-0.0299,0.0098,0.0303,0.0089,
2.3300,0.0177,-0.0107,-0.0299,0.0042,0.0303,0.0040,
2.3670,0.0177,-0.0107,-0.0299,-0.0043,0.0376,0.0010,
2.3680,0.0065,0.0053,-0.0041,-0.0043,0.0376,0.0010,
2.4060,0.0065,0.0053,-0.0041,-0.0043,0.0376,0.0010,
2.4070,0.0065,0.0053,-0.0041,-0.0043,0.0376,0.0010,
2.4070,0.0065,0.0053,-0.0041,-0.0043,0.0376,0.0010,
2.4070,0.0065,0.0053,-0.0041,-0.0043,0.0376,0.0010,
2.4080,0.0065,0.0053,-0.0041,-0.0116,0.0333,-0.0021,
2.4080,-0.0076,0.0086,-0.0601,-0.0116,0.0333,-0.0021,
2.4460,-0.0076,0.0086,-0.0601,-0.0171,0.0254,-0.0057,
2.4850,-0.0076,0.0086,-0.0601,-0.0171,0.0254,-0.0057,
2.4860,-0.0076,0.0086,-0.0601,-0.0171,0.0254,-0.0057,
2.4860,-0.0076,0.0086,-0.0601,-0.0171,0.0254,-0.0057,
2.4870,-0.0076,0.0086,-0.0601,-0.0171,0.0254,-0.0057,
2.4870,-0.0076,0.0086,-0.0601,-0.0092,0.0284,-0.0070,
2.4880,0.0224,-0.0224,0.0391,-0.0092,0.0284,-0.0070,
2.5240,0.0224,-0.0224,0.0391,0.0116,0.0303,0.0010,
2.5250,-0.0236,0.0009,0.1210,0.0116,0.0303,0.0010,
2.5630,-0.0236,0.0009,0.1210,0.0116,0.0303,0.0010,
2.5640,-0.0236,0.0009,0.1210,0.0116,0.0303,0.0010,
2.5640,-0.0236,0.0009,0.1210,0.0116,0.0303,0.0010,
2.5650,-0.0236,0.0009,0.1210,0.0116,0.0303,0.0010,
2.5650,-0.0236,0.0009,0.1210,0.0385,0.0193,0.0163,
2.6020,-0.0236,0.0009,0.1210,0.0238,-0.0113,0.0327,
2.6030,-0.1151,-0.0014,-0.0680,0.0238,-0.0113,0.0327,
2.6410,-0.1151,-0.0014,-0.0680,0.0238,-0.0113,0.0327,
2.6420,-0.1151,-0.0014,-0.0680,0.0238,-0.0113,0.0327,
2.6420,-0.1151,-0.0014,-0.0680,0.0238,-0.0113,0.0327,
2.6430,-0.1151,-0.0014,-0.0680,0.0238,-0.0113,0.0327,
2.6440,-0.1151,-0.0014,-0.0680,-0.0410,-0.0161,0.0046,
2.6440,0.1057,0.0320,-0.0552,-0.0410,-0.0161,0.0046,
2.6800,0.1057,0.0320,-0.0552,-0.0031,0.0181,0.0022,
2.7190,0.1057,0.0320,-0.0552,-0.0031,0.0181,0.0022,
2.7200,0.1057,0.0320,-0.0552,-0.0031,0.0181,0.0022,
2.7210,0.1057,0.0320,-0.0552,-0.0031,0.0181,0.0022,
2.7210,0.1057,0.0320,-0.0552,-0.0031,0.0181,0.0022,
2.7220,0.1057,0.0320,-0.0552,-0.0190,0.0089,-0.0045,
2.7220,0.0114,0.0387,-0.0371,-0.0190,0.0089,-0.0045,
2.7600,0.0193,-0.1541,0.0786,-0.0190,0.0089,-0.0045,
2.7610,0.0193,-0.1541,0.0786,-0.0025,-0.0070,-0.0094,
2.7980,0.0193,-0.1541,0.0786,-0.0025,-0.0070,-0.0094,
2.7980,0.0193,-0.1541,0.0786,-0.0025,-0.0070,-0.0094,
2.7990,0.0193,-0.1541,0.0786,-0.0025,-0.0070,-0.0094,
2.7990,0.0193,-0.1541,0.0786,-0.0025,-0.0070,-0.0094,
2.8000,0.0193,-0.1541,0.0786,0.0189,-0.0033,-0.0070,
2.8360,0.0193,-0.1541,0.0786,-0.0116,-0.0076,0.0004,
2.8370,-0.0016,0.1582,-0.0297,-0.0116,-0.0076,0.0004,
2.8760,-0.0016,0.1582,-0.0297,-0.0116,-0.0076,0.0004,
2.8770,-0.0016,0.1582,-0.0297,-0.0116,-0.0076,0.0004,
2.8770,-0.0016,0.1582,-0.0297,-0.0116,-0.0076,0.0004,
2.8780,-0.0016,0.1582,-0.0297,-0.0116,-0.0076,0.0004,
2.8780,-0.0016,0.1582,-0.0297,-0.0055,-0.0125,0.0040,
2.8790,-0.0561,-0.0932,0.0299,-0.0055,-0.0125,0.0040,
2.9150,-0.0561,-0.0932,0.0299,0.0006,-0.0229,0.0028,
2.9540,-0.0561,-0.0932,0.0299,0.0006,-0.0229,0.0028,
2.9550,-0.0561,-0.0932,0.0299,0.0006,-0.0229,0.0028,
2.9550,-0.0561,-0.0932,0.0299,0.0006,-0.0229,0.0028,
2.9560,-0.0561,-0.0932,0.0299,0.0006,-0.0229,0.0028,
2.9560,-0.0561,-0.0932,0.0299,-0.0086,-0.0271,-0.0051,
2.9570,0.0223,0.0461,-0.0001,-0.0086,-0.0271,-0.0051,
2.9940,0.0223,0.0461,-0.0001,-0.0098,-0.0137,-0.0131,
2.9950,0.0601,-0.0221,0.0345,-0.0098,-0.0137,-0.0131,
3.0320,0.0601,-0.0221,0.0345,-0.0098,-0.0137,-0.0131,
3.0320,0.0601,-0.0221,0.0345,-0.0098,-0.0137,-0.0131,
3.0330,0.0601,-0.0221,0.0345,-0.0098,-0.0137,-0.0131,
3.0330,0.0601,-0.0221,0.0345,-0.0098,-0.0137,-0.0131,
3.0340,0.0601,-0.0221,0.0345,-0.0086,-0.0168,-0.0180,
3.0700,0.0601,-0.0221,0.0345,-0.0074,-0.0241,-0.0149,
3.0710,0.0031,0.0063,0.0116,-0.0074,-0.0241,-0.0149,
3.1100,0.0031,0.0063,0.0116,-0.0074,-0.0241,-0.0149,
3.1110,0.0031,0.0063,0.0116,-0.0074,-0.0241,-0.0149,
3.1120,0.0031,0.0063,0.0116,-0.0074,-0.0241,-0.0149,
3.1120,0.0031,0.0063,0.0116,-0.0074,-0.0241,-0.0149,
3.1130,0.0031,0.0063,0.0116,-0.0080,-0.0155,-0.0173,
3.1130,0.0204,-0.0004,-0.0022,-0.0080,-0.0155,-0.0173,
3.1490,0.0204,-0.0004,-0.0022,-0.0055,-0.0192,-0.0186,
3.1880,0.0204,-0.0004,-0.0022,-0.0055,-0.0192,-0.0186,
3.1890,0.0204,-0.0004,-0.0022,-0.0055,-0.0192,-0.0186,
3.1890,0.0204,-0.0004,-0.0022,-0.0055,-0.0192,-0.0186,
3.1890,0.0204,-0.0004,-0.0022,-0.0055,-0.0192,-0.0186,
3.1900,0.0204,-0.0004,-0.0022,-0.0000,-0.0296,-0.0131,
3.1900,-0.0572,-0.0218,-0.0343,-0.0000,-0.0296,-0.0131,
3.2260,-0.0572,-0.0218,-0.0343,0.0006,-0.0400,-0.0027,
3.2270,0.0106,-0.0028,0.0502,0.0006,-0.0400,-0.0027,
3.2660,0.0106,-0.0028,0.0502,0.0006,-0.0400,-0.0027,
3.2670,0.0106,-0.0028,0.0502,0.0006,-0.0400,-0.0027,
3.2670,0.0106,-0.0028,0.0502,0.0006,-0.0400,-0.0027,
3.2680,0.0106,-0.0028,0.0502,0.0006,-0.0400,-0.0027,
3.2690,0.0106,-0.0028,0.0502,-0.0025,-0.0308,-0.0015,
3.3050,0.0106,-0.0028,0.0502,0.0006,-0.0332,0.0046,
3.3050,-0.0185,-0.0026,-0.0100,0.0006,-0.0332,0.0046,
3.3440,-0.0185,-0.0026,-0.0100,0.0006,-0.0332,0.0046,
3.3450,-0.0185,-0.0026,-0.0100,0.0006,-0.0332,0.0046,
3.3450,-0.0185,-0.0026,-0.0100,0.0006,-0.0332,0.0046,
3.3460,-0.0185,-0.0026,-0.0100,0.0006,-0.0332,0.0046,
3.3460,-0.0185,-0.0026,-0.0100,0.0018,-0.0278,0.0059,
3.3470,0.0127,0.0011,-0.0156,0.0018,-0.0278,0.0059,
3.3830,0.0127,0.0011,-0.0156,0.0049,-0.0204,0.0065,
3.4220,0.0127,0.0011,-0.0156,0.0049,-0.0204,0.0065,
3.4230,0.0127,0.0011,-0.0156,0.0049,-0.0204,0.0065,
3.4240,0.0127,0.0011,-0.0156,0.0049,-0.0204,0.0065,
3.4240,0.0127,0.0011,-0.0156,0.0049,-0.0204,0.0065,
3.4250,0.0127,0.0011,-0.0156,0.0061,-0.0161,0.0052,
3.4250,0.0188,-0.0154,0.0227,0.0061,-0.0161,0.0052,
3.4610,0.0188,-0.0154,0.0227,0.0134,-0.0259,0.0071,
3.4620,-0.0418,-0.0214,0.0320,0.0134,-0.0259,0.0071,
3.5000,-0.0418,-0.0214,0.0320,0.0134,-0.0259,0.0071,
3.5010,-0.0418,-0.0214,0.0320,0.0134,-0.0259,0.0071,
3.5020,-0.0418,-0.0214,0.0320,0.0134,-0.0259,0.0071,
3.5020,-0.0418,-0.0214,0.0320,0.0134,-0.0259,0.0071,
3.5030,-0.0418,-0.0214,0.0320,0.0226,-0.0247,0.0077,
3.5390,-0.0418,-0.0214,0.0320,0.0232,-0.0155,0.0046,
3.5400,0.0019,-0.0000,-0.0113,0.0232,-0.0155,0.0046,
3.5780,0.0019,-0.0000,-0.0113,0.0232,-0.0155,0.0046,
3.5800,0.0019,-0.0000,-0.0113,0.0232,-0.0155,0.0046,
3.5800,0.0019,-0.0000,-0.0113,0.0232,-0.0155,0.0046,
3.5810,0.0019,-0.0000,-0.0113,0.0232,-0.0155,0.0046,
3.5810,0.0019,-0.0000,-0.0113,0.0250,-0.0186,0.0022,
3.5820,0.0016,0.0007,0.0054,0.0250,-0.0186,0.0022,
3.6170,0.0016,0.0007,0.0054,0.0207,-0.0186,-0.0021,
3.6570,0.0016,0.0007,0.0054,0.0207,-0.0186,-0.0021,
3.6600,0.0016,0.0007,0.0054,0.0207,-0.0186,-0.0021,
3.6610,0.0016,0.0007,0.0054,0.0207,-0.0186,-0.0021,
3.6620,0.0016,0.0007,0.0054,0.0207,-0.0186,-0.0021,
3.6630,0.0016,0.0007,0.0054,0.0183,-0.0265,-0.0009,
3.6640,-0.0159,0.0071,0.0076,0.0183,-0.0265,-0.0009,
3.6950,-0.0159,0.0071,0.0076,0.0152,-0.0241,0.0010,
3.6970,0.0233,0.0090,0.0262,0.0152,-0.0241,0.0010,
3.7350,0.0233,0.0090,0.0262,0.0152,-0.0241,0.0010,
3.7370,0.0233,0.0090,0.0262,0.0152,-0.0241,0.0010,
3.7390,0.0233,0.0090,0.0262,0.0152,-0.0241,0.0010,
3.7400,0.0233,0.0090,0.0262,0.0152,-0.0241,0.0010,
3.7410,0.0233,0.0090,0.0262,0.0146,-0.0192,0.0010,
3.7740,0.0233,0.0090,0.0262,0.0177,-0.0235,0.0028,
3.7770,-0.0113,-0.0021,-0.0114,0.0177,-0.0235,0.0028,
3.8130,-0.0113,-0.0021,-0.0114,0.0177,-0.0235,0.0028,
3.8150,-0.0113,-0.0021,-0.0114,0.0177,-0.0235,0.0028,
3.8160,-0.0113,-0.0021,-0.0114,0.0177,-0.0235,0.0028,
3.8180,-0.0113,-0.0021,-0.0114,0.0177,-0.0235,0.0028,
3.8190,-0.0113,-0.0021,-0.0114,0.0152,-0.0253,0.0010,
3.8200,0.0121,0.0114,-0.0115,0.0152,-0.0253,0.0010,
3.8520,0.0121,0.0114,-0.0115,0.0098,-0.0278,-0.0033,
3.8910,0.0121,0.0114,-0.0115,0.0098,-0.0278,-0.0033,
3.8930,0.0121,0.0114,-0.0115,0.0098,-0.0278,-0.0033,
3.8940,0.0121,0.0114,-0.0115,0.0098,-0.0278,-0.0033,
3.8950,0.0121,0.0114,-0.0115,0.0098,-0.0278,-0.0033,
3.8960,0.0121,0.0114,-0.0115,0.0085,-0.0302,-0.0051,
3.8970,-0.0075,-0.0021,0.0160,0.0085,-0.0302,-0.0051,
3.9300,-0.0075,-0.0021,0.0160,0.0091,-0.0357,-0.0063,
3.9320,-0.0115,0.0044,-0.0003,0.0091,-0.0357,-0.0063,
3.9700,-0.0115,0.0044,-0.0003,0.0091,-0.0357,-0.0063,
3.9730,-0.0115,0.0044,-0.0003,0.0091,-0.0357,-0.0063,
3.9740,-0.0115,0.0044,-0.0003,0.0091,-0.0357,-0.0063,
3.9750,-0.0115,0.0044,-0.0003,0.0091,-0.0357,-0.0063,
3.9760,-0.0115,0.0044,-0.0003,0.0091,-0.0332,-0.0076,
4.0090,-0.0115,0.0044,-0.0003,0.0116,-0.0314,-0.0057,
4.0110,0.0132,-0.0018,-0.0050,0.0116,-0.0314,-0.0057,
4.0480,0.0132,-0.0018,-0.0050,0.0116,-0.0314,-0.0057,
4.0500,0.0132,-0.0018,-0.0050,0.0116,-0.0314,-0.0057,
4.0510,0.0132,-0.0018,-0.0050,0.0116,-0.0314,-0.0057,
4.0520,0.0132,-0.0018,-0.0050,0.0116,-0.0314,-0.0057,
4.0530,0.0132,-0.0018,-0.0050,0.0091,-0.0271,-0.0045,
4.0540,0.0371,0.0146,-0.0297,0.0091,-0.0271,-0.0045,
4.0870,0.0371,0.0146,-0.0297,0.0079,-0.0180,-0.0094,
4.1260,0.0371,0.0146,-0.0297,0.0079,-0.0180,-0.0094,
4.1270,0.0371,0.0146,-0.0297,0.0079,-0.0180,-0.0094,
4.1290,0.0371,0.0146,-0.0297,0.0079,-0.0180,-0.0094,
4.1300,0.0371,0.0146,-0.0297,0.0079,-0.0180,-0.0094,
4.1310,0.0371,0.0146,-0.0297,0.0091,-0.0113,-0.0119,
4.1320,0.0326,-0.0161,-0.0151,0.0091,-0.0113,-0.0119,
4.1650,0.0326,-0.0161,-0.0151,0.0110,-0.0045,-0.0137,
4.1670,-0.0245,0.0087,-0.0473,0.0110,-0.0045,-0.0137,
4.2040,-0.0245,0.0087,-0.0473,0.0110,-0.0045,-0.0137,
4.2060,-0.0245,0.0087,-0.0473,0.0110,-0.0045,-0.0137,
4.2070,-0.0245,0.0087,-0.0473,0.0110,-0.0045,-0.0137,
4.2080,-0.0245,0.0087,-0.0473,0.0110,-0.0045,-0.0137,
4.2090,-0.0245,0.0087,-0.0473,0.0049,-0.0107,-0.0070,
4.2430,-0.0245,0.0087,-0.0473,-0.0019,-0.0027,-0.0051,
4.2450,0.0124,0.0159,0.0014,-0.0019,-0.0027,-0.0051,
4.2820,0.0124,0.0159,0.0014,-0.0019,-0.0027,-0.0051,
4.2840,0.0124,0.0159,0.0014,-0.0019,-0.0027,-0.0051,
4.2850,0.0124,0.0159,0.0014,-0.0019,-0.0027,-0.0051,
4.2860,0.0124,0.0159,0.0014,-0.0019,-0.0027,-0.0051,
4.2880,0.0124,0.0159,0.0014,-0.0055,-0.0070,0.0004,
4.2890,-0.0271,0.0062,-0.0294,-0.0055,-0.0070,0.0004,
4.3200,-0.0271,0.0062,-0.0294,-0.0074,-0.0052,-0.0027,
4.3600,-0.0271,0.0062,-0.0294,-0.0074,-0.0052,-0.0027,
4.3630,-0.0271,0.0062,-0.0294,-0.0074,-0.0052,-0.0027,
4.3640,-0.0271,0.0062,-0.0294,-0.0074,-0.0052,-0.0027,
4.3660,-0.0271,0.0062,-0.0294,-0.0074,-0.0052,-0.0027,
4.3670,-0.0271,0.0062,-0.0294,-0.0104,-0.0021,-0.0015,
4.3680,-0.0078,0.0053,-0.0063,-0.0104,-0.0021,-0.0015,
4.3980,-0.0078,0.0053,-0.0063,-0.0159,0.0040,-0.0063,
4.4000,-0.0139,-0.0056,-0.0150,-0.0159,0.0040,-0.0063,
4.4380,-0.0139,-0.0056,-0.0150,-0.0159,0.0040,-0.0063,
4.4400,-0.0139,-0.0056,-0.0150,-0.0159,0.0040,-0.0063,
4.4410,-0.0139,-0.0056,-0.0150,-0.0159,0.0040,-0.0063,
4.4430,-0.0139,-0.0056,-0.0150,-0.0159,0.0040,-0.0063,
4.4440,-0.0139,-0.0056,-0.0150,-0.0116,-0.0009,-0.0021,
4.4770,-0.0139,-0.0056,-0.0150,-0.0049,0.0046,-0.0009,
4.4790,0.0133,-0.0102,0.0229,-0.0049,0.0046,-0.0009,
4.5160,0.0133,-0.0102,0.0229,-0.0049,0.0046,-0.0009,
4.5170,0.0133,-0.0102,0.0229,-0.0049,0.0046,-0.0009,
4.5170,0.0133,-0.0102,0.0229,-0.0049,0.0046,-0.0009,
4.5180,0.0133,-0.0102,0.0229,-0.0049,0.0046,-0.0009,
4.5180,0.0133,-0.0102,0.0229,-0.0092,0.0119,-0.0021,
4.5190,0.0115,0.0006,-0.0206,-0.0092,0.0119,-0.0021,
4.5550,0.0115,0.0006,-0.0206,-0.0074,0.0107,-0.0002,
4.5950,0.0115,0.0006,-0.0206,-0.0074,0.0107,-0.0002,
4.5970,0.0115,0.0006,-0.0206,-0.0074,0.0107,-0.0002,
4.5980,0.0115,0.0006,-0.0206,-0.0074,0.0107,-0.0002,
4.5990,0.0115,0.0006,-0.0206,-0.0074,0.0107,-0.0002,
4.6000,0.0115,0.0006,-0.0206,-0.0067,0.0083,-0.0015,
4.6020,0.0023,-0.0104,-0.0053,-0.0067,0.0083,-0.0015,
4.6330,0.0023,-0.0104,-0.0053,-0.0086,0.0052,-0.0002,
4.6350,0.0143,-0.0003,-0.0049,-0.0086,0.0052,-0.0002,
4.6710,0.0143,-0.0003,-0.0049,-0.0086,0.0052,-0.0002,
4.6720,0.0143,-0.0003,-0.0049,-0.0086,0.0052,-0.0002,
4.6730,0.0143,-0.0003,-0.0049,-0.0086,0.0052,-0.0002,
4.6730,0.0143,-0.0003,-0.0049,-0.0086,0.0052,-0.0002,
4.6740,0.0143,-0.0003,-0.0049,-0.0104,0.0058,-0.0009,
4.7110,0.0143,-0.0003,-0.0049,-0.0086,0.0071,0.0004,
4.7130,0.0134,-0.0084,0.0170,-0.0086,0.0071,0.0004,
4.7510,0.0134,-0.0084,0.0170,-0.0086,0.0071,0.0004,
4.7530,0.0134,-0.0084,0.0170,-0.0086,0.0071,0.0004,
4.7540,0.0134,-0.0084,0.0170,-0.0086,0.0071,0.0004,
4.7550,0.0134,-0.0084,0.0170,-0.0086,0.0071,0.0004,
4.7560,0.0134,-0.0084,0.0170,-0.0086,0.0040,-0.0002,
4.7570,0.0075,-0.0056,0.0253,-0.0086,0.0040,-0.0002,
4.7890,0.0075,-0.0056,0.0253,-0.0104,0.0009,-0.0015,
4.8290,0.0075,-0.0056,0.0253,-0.0104,0.0009,-0.0015,
4.8310,0.0075,-0.0056,0.0253,-0.0104,0.0009,-0.0015,
4.8320,0.0075,-0.0056,0.0253,-0.0104,0.0009,-0.0015,
4.8340,0.0075,-0.0056,0.0253,-0.0104,0.0009,-0.0015,
4.8350,0.0075,-0.0056,0.0253,-0.0104,-0.0027,-0.0021,
4.8360,-0.0272,0.0060,-0.0098,-0.0104,-0.0027,-0.0021,
4.8670,-0.0272,0.0060,-0.0098,-0.0049,0.0040,-0.0015,
4.8690,0.0007,-0.0005,0.0064,-0.0049,0.0040,-0.0015,
4.9050,0.0007,-0.0005,0.0064,-0.0049,0.0040,-0.0015,
4.9060,0.0007,-0.0005,0.0064,-0.0049,0.0040,-0.0015,
4.9070,0.0007,-0.0005,0.0064,-0.0049,0.0040,-0.0015,
4.9070,0.0007,-0.0005,0.0064,-0.0049,0.0040,-0.0015,
4.9080,0.0007,-0.0005,0.0064,0.0049,0.0065,-0.0033,
4.9450,0.0007,-0.0005,0.0064,0.0049,0.0022,-0.0009,
4.9460,-0.0047,0.0268,-0.0405,0.0049,0.0022,-0.0009,
4.9850,-0.0047,0.0268,-0.0405,0.0049,0.0022,-0.0009,
4.9870,-0.0047,0.0268,-0.0405,0.0049,0.0022,-0.0009,
4.9880,-0.0047,0.0268,-0.0405,0.0049,0.0022,-0.0009,
4.9890,-0.0047,0.0268,-0.0405,0.0049,0.0022,-0.0009,
4.9900,0.0442,-0.0158,-0.0135,0.0049,0.0022,-0.0009,
4.9920,0.0442,-0.0158,-0.0135,0.0006,0.0071,-0.0027,
5.0230,0.0442,-0.0158,-0.0135,0.0024,0.0113,-0.0021,
5.0630,0.0442,-0.0158,-0.0135,0.0024,0.0113,-0.0021,
5.0640,0.0442,-0.0158,-0.0135,0.0024,0.0113,-0.0021,
5.0660,0.0442,-0.0158,-0.0135,0.0024,0.0113,-0.0021,
5.0670,0.0442,-0.0158,-0.0135,0.0024,0.0113,-0.0021,
5.0680,0.0442,-0.0158,-0.0135,0.0018,0.0016,-0.0027,
5.0700,-0.0144,0.0082,-0.0205,0.0018,0.0016,-0.0027,
5.1010,-0.0144,0.0082,-0.0205,0.0043,-0.0009,-0.0015,
5.1030,-0.0204,-0.0315,-0.0129,0.0043,-0.0009,-0.0015,
5.1410,-0.0204,-0.0315,-0.0129,0.0043,-0.0009,-0.0015,
5.1430,-0.0204,-0.0315,-0.0129,0.0043,-0.0009,-0.0015,
5.1450,-0.0204,-0.0315,-0.0129,0.0043,-0.0009,-0.0015,
5.1460,-0.0204,-0.0315,-0.0129,0.0043,-0.0009,-0.0015,
5.1470,-0.0204,-0.0315,-0.0129,0.0091,-0.0064,0.0022,
5.1800,-0.0204,-0.0315,-0.0129,0.0152,0.0009,-0.0027,
5.1820,0.0024,-0.0014,-0.0104,0.0152,0.0009,-0.0027,
5.1830,0.0024,-0.0014,-0.0104,0.0152,0.0009,-0.0027,
5.1840,0.0024,-0.0014,-0.0104,0.0152,0.0009,-0.0027,
5.2180,0.0024,-0.0014,-0.0104,0.0122,-0.0107,0.0016,
5.2200,-0.0085,0.0262,-0.0161,0.0122,-0.0107,0.0016,
5.2590,-0.0085,0.0262,-0.0161,0.0103,-0.0131,0.0089,
5.2610,-0.0085,0.0262,-0.0161,0.0103,-0.0131,0.0089,
5.2620,-0.0085,0.0262,-0.0161,0.0103,-0.0131,0.0089,
5.2630,-0.0085,0.0262,-0.0161,0.0103,-0.0131,0.0089,
5.2640,-0.0085,0.0262,-0.0161,0.0103,-0.0131,0.0089,
5.2960,-0.0085,0.0262,-0.0161,0.0079,-0.0113,0.0095,
5.2970,-0.0259,0.0126,-0.0001,0.0079,-0.0113,0.0095,
5.3350,-0.0259,0.0126,-0.0001,0.0024,-0.0064,0.0095,
5.3370,-0.0259,0.0126,-0.0001,0.0024,-0.0064,0.0095,
5.3380,-0.0259,0.0126,-0.0001,0.0024,-0.0064,0.0095,
5.3380,-0.0259,0.0126,-0.0001,0.0024,-0.0064,0.0095,
5.3390,-0.0259,0.0126,-0.0001,0.0024,-0.0064,0.0095,
5.3400,0.0221,0.0216,-0.0408,0.0024,-0.0064,0.0095,
5.3740,0.0221,0.0216,-0.0408,-0.0037,-0.0027,0.0089,
5.4140,0.0221,0.0216,-0.0408,-0.0067,0.0040,0.0101,
5.4160,0.0221,0.0216,-0.0408,-0.0067,0.0040,0.0101,
5.4170,0.0221,0.0216,-0.0408,-0.0067,0.0040,0.0101,
5.4180,0.0221,0.0216,-0.0408,-0.0067,0.0040,0.0101,
5.4210,0.0221,0.0216,-0.0408,-0.0067,0.0040,0.0101,
5.4220,0.0020,-0.0033,0.0034,-0.0067,0.0040,0.0101,
5.4530,0.0020,-0.0033,0.0034,-0.0092,0.0040,0.0095,
5.4550,-0.0124,-0.0030,0.0079,-0.0092,0.0040,0.0095,
5.4920,-0.0124,-0.0030,0.0079,-0.0037,0.0046,0.0132,
5.4940,-0.0124,-0.0030,0.0079,-0.0037,0.0046,0.0132,
5.4960,-0.0124,-0.0030,0.0079,-0.0037,0.0046,0.0132,
5.4970,-0.0124,-0.0030,0.0079,-0.0037,0.0046,0.0132,
5.4980,-0.0124,-0.0030,0.0079,-0.0037,0.0046,0.0132,
5.5320,-0.0124,-0.0030,0.0079,-0.0018,0.0083,0.0114,
5.5330,-0.0015,-0.0125,0.0014,-0.0018,0.0083,0.0114,
5.5710,-0.0101,-0.0123,0.0053,-0.0018,0.0083,0.0114,
5.5730,-0.0101,-0.0123,0.0053,-0.0031,0.0107,0.0089,
5.5740,-0.0101,-0.0123,0.0053,-0.0031,0.0107,0.0089,
5.5750,-0.0101,-0.0123,0.0053,-0.0031,0.0107,0.0089,
5.5760,-0.0101,-0.0123,0.0053,-0.0031,0.0107,0.0089,
5.5780,-0.0101,-0.0123,0.0053,-0.0031,0.0107,0.0089,
5.6100,-0.0101,-0.0123,0.0053,-0.0013,0.0107,0.0071,
5.6490,-0.0101,-0.0123,0.0053,-0.0037,0.0101,0.0040,
5.6510,-0.0101,-0.0123,0.0053,-0.0037,0.0101,0.0040,
5.6520,-0.0101,-0.0123,0.0053,-0.0037,0.0101,0.0040,
5.6530,-0.0101,-0.0123,0.0053,-0.0037,0.0101,0.0040,
5.6540,-0.0101,-0.0123,0.0053,-0.0037,0.0101,0.0040,
5.6550,-0.0233,-0.0071,-0.0050,-0.0037,0.0101,0.0040,
5.6870,-0.0233,-0.0071,-0.0050,-0.0037,0.0077,0.0022,
5.6900,-0.0216,-0.0072,-0.0118,-0.0037,0.0077,0.0022,
5.7260,-0.0216,-0.0072,-0.0118,-0.0061,0.0071,0.0016,
5.7290,-0.0216,-0.0072,-0.0118,-0.0061,0.0071,0.0016,
5.7310,-0.0216,-0.0072,-0.0118,-0.0061,0.0071,0.0016,
5.7320,-0.0216,-0.0072,-0.0118,-0.0061,0.0071,0.0016,
5.7330,-0.0216,-0.0072,-0.0118,-0.0061,0.0071,0.0016,
5.7660,-0.0216,-0.0072,-0.0118,-0.0086,0.0022,0.0022,
5.7680,-0.0239,0.0145,-0.0122,-0.0086,0.0022,0.0022,
5.8050,-0.0239,0.0145,-0.0122,-0.0110,0.0022,0.0004,
5.8070,-0.0239,0.0145,-0.0122,-0.0110,0.0022,0.0004,
5.8080,-0.0239,0.0145,-0.0122,-0.0110,0.0022,0.0004,
5.8100,-0.0239,0.0145,-0.0122,-0.0110,0.0022,0.0004,
5.8110,-0.0239,0.0145,-0.0122,-0.0110,0.0022,0.0004,
5.8120,-0.0019,-0.0024,0.0009,-0.0110,0.0022,0.0004,
5.8440,-0.0019,-0.0024,0.0009,-0.0110,0.0034,0.0004,
5.8830,-0.0019,-0.0024,0.0009,-0.0104,0.0046,-0.0002,
5.8850,-0.0019,-0.0024,0.0009,-0.0104,0.0046,-0.0002,
5.8860,-0.0019,-0.0024,0.0009,-0.0104,0.0046,-0.0002,
5.8870,-0.0019,-0.0024,0.0009,-0.0104,0.0046,-0.0002,
5.8890,-0.0019,-0.0024,0.0009,-0.0104,0.0046,-0.0002,
5.8910,-0.0041,0.0045,-0.0053,-0.0104,0.0046,-0.0002,
5.9220,-0.0041,0.0045,-0.0053,-0.0086,0.0052,-0.0002,
5.9240,-0.0065,-0.0197,-0.0084,-0.0086,0.0052,-0.0002,
5.9610,-0.0065,-0.0197,-0.0084,-0.0043,0.0077,0.0010,
5.9630,-0.0065,-0.0197,-0.0084,-0.0043,0.0077,0.0010,
5.9640,-0.0065,-0.0197,-0.0084,-0.0043,0.0077,0.0010,
5.9650,-0.0065,-0.0197,-0.0084,-0.0043,0.0077,0.0010,
5.9690,-0.0065,-0.0197,-0.0084,-0.0043,0.0077,0.0010,
6.0010,-0.0065,-0.0197,-0.0084,-0.0025,0.0071,0.0034,
6.0030,-0.0090,-0.0007,0.0036,-0.0025,0.0071,0.0034,
6.0290,-0.0090,-0.0007,0.0036,-0.0025,0.0071,0.0034,
6.0310,-0.0090,-0.0007,0.0036,-0.0025,0.0071,0.0034,
6.0310,-0.0090,-0.0007,0.0036,-0.0025,0.0071,0.0034,
6.0580,-0.0090,-0.0007,0.0036,0.0030,0.0046,0.0071,
6.0600,0.0043,-0.0115,-0.0115,0.0030,0.0046,0.0071,
6.0970,0.0043,-0.0115,-0.0115,0.0030,0.0046,0.0071,
6.0980,0.0043,-0.0115,-0.0115,0.0030,0.0046,0.0071,
6.0980,0.0043,-0.0115,-0.0115,0.0030,0.0046,0.0071,
6.0990,0.0043,-0.0115,-0.0115,0.0030,0.0046,0.0071,
6.1000,0.0043,-0.0115,-0.0115,0.0030,0.0065,0.0016,
6.1010,0.0137,-0.0229,0.0208,0.0030,0.0065,0.0016,
6.1360,0.0137,-0.0229,0.0208,0.0036,0.0040,-0.0033,
6.1750,0.0137,-0.0229,0.0208,0.0036,0.0040,-0.0033,
6.1800,0.0137,-0.0229,0.0208,0.0036,0.0040,-0.0033,
6.1810,0.0137,-0.0229,0.0208,0.0036,0.0040,-0.0033,
6.1820,0.0137,-0.0229,0.0208,0.0036,0.0040,-0.0033,
6.1830,-0.0363,-0.0001,-0.0074,0.0036,0.0040,-0.0033,
6.1850,-0.0363,-0.0001,-0.0074,0.0012,0.0016,-0.0088,
6.2140,-0.0363,-0.0001,-0.0074,-0.0013,-0.0143,-0.0015,
6.2150,0.0068,0.0353,0.0208,-0.0013,-0.0143,-0.0015,
6.2530,0.0068,0.0353,0.0208,-0.0013,-0.0143,-0.0015,
6.2550,0.0068,0.0353,0.0208,-0.0013,-0.0143,-0.0015,
6.2560,0.0068,0.0353,0.0208,-0.0013,-0.0143,-0.0015,
6.2570,0.0068,0.0353,0.0208,-0.0013,-0.0143,-0.0015,
6.2570,0.0068,0.0353,0.0208,-0.0074,-0.0137,0.0016,
6.2930,0.0068,0.0353,0.0208,-0.0123,-0.0192,0.0010,
6.2940,0.0068,0.0146,-0.0123,-0.0123,-0.0192,0.0010,
6.3320,0.0068,0.0146,-0.0123,-0.0123,-0.0192,0.0010,
6.3340,0.0068,0.0146,-0.0123,-0.0123,-0.0192,0.0010,
6.3350,0.0068,0.0146,-0.0123,-0.0123,-0.0192,0.0010,
6.3360,0.0068,0.0146,-0.0123,-0.0123,-0.0192,0.0010,
6.3370,0.0068,0.0146,-0.0123,-0.0147,-0.0174,-0.0027,
6.3390,0.0430,-0.0074,-0.0046,-0.0147,-0.0174,-0.0027,
6.3700,0.0430,-0.0074,-0.0046,-0.0159,-0.0192,-0.0027,
6.4100,0.0430,-0.0074,-0.0046,-0.0159,-0.0192,-0.0027,
6.4120,0.0430,-0.0074,-0.0046,-0.0159,-0.0192,-0.0027,
6.4130,0.0430,-0.0074,-0.0046,-0.0159,-0.0192,-0.0027,
6.4140,0.0430,-0.0074,-0.0046,-0.0159,-0.0192,-0.0027,
6.4160,0.0430,-0.0074,-0.0046,-0.0153,-0.0070,-0.0100,
6.4170,0.0360,-0.0033,-0.0088,-0.0153,-0.0070,-0.0100,
6.4490,0.0360,-0.0033,-0.0088,-0.0165,-0.0088,-0.0100,
6.4510,0.0106,-0.0045,0.0291,-0.0165,-0.0088,-0.0100,
6.4820,0.0106,-0.0045,0.0291,-0.0086,-0.0064,-0.0070,
6.4850,0.0106,-0.0045,0.0291,-0.0086,-0.0064,-0.0070,
6.4860,0.0106,-0.0045,0.0291,-0.0086,-0.0064,-0.0070,
6.4870,0.0106,-0.0045,0.0291,-0.0086,-0.0064,-0.0070,
6.5090,0.0022,0.0075,0.0137,-0.0086,-0.0064,-0.0070,
6.5110,0.0022,0.0075,0.0137,-0.0049,-0.0021,-0.0082,
6.5470,0.0022,0.0075,0.0137,-0.0049,-0.0021,-0.0082,
6.5490,0.0022,0.0075,0.0137,-0.0049,-0.0021,-0.0082,
6.5500,0.0022,0.0075,0.0137,-0.0049,-0.0021,-0.0082,
6.5510,0.0022,0.0075,0.0137,-0.0049,-0.0021,-0.0082,
6.5520,0.0022,0.0075,0.0137,-0.0086,-0.0039,-0.0070,
6.5860,0.0022,0.0075,0.0137,-0.0074,-0.0100,-0.0063,
6.5880,-0.0099,-0.0132,-0.0072,-0.0074,-0.0100,-0.0063,
6.6250,-0.0099,-0.0132,-0.0072,-0.0074,-0.0100,-0.0063,
6.6260,-0.0099,-0.0132,-0.0072,-0.0074,-0.0100,-0.0063,
6.6280,-0.0099,-0.0132,-0.0072,-0.0074,-0.0100,-0.0063,
6.6290,-0.0099,-0.0132,-0.0072,-0.0074,-0.0100,-0.0063,
6.6300,0.0193,-0.0011,0.0100,-0.0074,-0.0100,-0.0063,
6.6310,0.0193,-0.0011,0.0100,-0.0055,-0.0094,-0.0057,
6.6630,0.0193,-0.0011,0.0100,-0.0025,0.0016,-0.0070,
6.7030,0.0193,-0.0011,0.0100,-0.0025,0.0016,-0.0070,
6.7050,0.0193,-0.0011,0.0100,-0.0025,0.0016,-0.0070,
6.7060,0.0193,-0.0011,0.0100,-0.0025,0.0016,-0.0070,
6.7080,0.0193,-0.0011,0.0100,-0.0025,0.0016,-0.0070,
6.7090,0.0193,-0.0011,0.0100,0.0030,0.0126,-0.0063,
6.7100,0.0226,-0.0049,0.0540,0.0030,0.0126,-0.0063,
6.7420,0.0226,-0.0049,0.0540,-0.0006,0.0138,-0.0051,
6.7440,0.0124,-0.0048,0.0320,-0.0006,0.0138,-0.0051,
6.7810,0.0124,-0.0048,0.0320,-0.0006,0.0138,-0.0051,
6.7830,0.0124,-0.0048,0.0320,-0.0006,0.0138,-0.0051,
6.7840,0.0124,-0.0048,0.0320,-0.0006,0.0138,-0.0051,
6.7850,0.0124,-0.0048,0.0320,-0.0006,0.0138,-0.0051,
6.7870,0.0124,-0.0048,0.0320,-0.0019,0.0138,-0.0082,
6.8190,0.0124,-0.0048,0.0320,0.0006,0.0138,-0.0051,
6.8210,-0.0218,0.0073,0.0394,0.0006,0.0138,-0.0051,
6.8590,-0.0218,0.0073,0.0394,0.0006,0.0138,-0.0051,
6.8610,-0.0218,0.0073,0.0394,0.0006,0.0138,-0.0051,
6.8620,-0.0218,0.0073,0.0394,0.0006,0.0138,-0.0051,
6.8640,-0.0218,0.0073,0.0394,0.0006,0.0138,-0.0051,
6.8650,-0.0218,0.0073,0.0394,-0.0006,0.0095,-0.0039,
6.8660,-0.0127,-0.0018,0.0025,-0.0006,0.0095,-0.0039,
6.8990,-0.0127,-0.0018,0.0025,-0.0000,0.0065,-0.0039,
6.9370,-0.0127,-0.0018,0.0025,-0.0000,0.0065,-0.0039,
6.9400,-0.0127,-0.0018,0.0025,-0.0000,0.0065,-0.0039,
6.9410,-0.0127,-0.0018,0.0025,-0.0000,0.0065,-0.0039,
6.9420,-0.0127,-0.0018,0.0025,-0.0000,0.0065,-0.0039,
6.9430,-0.0127,-0.0018,0.0025,-0.0031,0.0071,-0.0051,
6.9450,0.0083,0.0127,0.0185,-0.0031,0.0071,-0.0051,
6.9760,0.0083,0.0127,0.0185,-0.0000,0.0034,-0.0045,
6.9780,-0.0293,-0.0198,0.0556,-0.0000,0.0034,-0.0045,
7.0150,-0.0293,-0.0198,0.0556,-0.0000,0.0034,-0.0045,
7.0180,-0.0293,-0.0198,0.0556,-0.0000,0.0034,-0.0045,
7.0190,-0.0293,-0.0198,0.0556,-0.0000,0.0034,-0.0045,
7.0210,-0.0293,-0.0198,0.0556,-0.0000,0.0034,-0.0045,
7.0220,-0.0293,-0.0198,0.0556,0.0061,-0.0088,-0.0021,
7.0540,-0.0293,-0.0198,0.0556,0.0079,-0.0290,0.0101,
7.0560,-0.0239,0.0060,0.0110,0.0079,-0.0290,0.0101,
7.0930,-0.0239,0.0060,0.0110,0.0079,-0.0290,0.0101,
7.0950,-0.0239,0.0060,0.0110,0.0079,-0.0290,0.0101,
7.0960,-0.0239,0.0060,0.0110,0.0079,-0.0290,0.0101,
7.0970,-0.0239,0.0060,0.0110,0.0079,-0.0290,0.0101,
7.1000,-0.0149,-0.0287,0.0152,0.0079,-0.0290,0.0101,
7.1010,-0.0149,-0.0287,0.0152,0.0146,-0.0449,0.0101,
7.1320,-0.0149,-0.0287,0.0152,0.0244,-0.0198,0.0004,
7.1720,-0.0149,-0.0287,0.0152,0.0244,-0.0198,0.0004,
7.1740,-0.0149,-0.0287,0.0152,0.0244,-0.0198,0.0004,
7.1750,-0.0149,-0.0287,0.0152,0.0244,-0.0198,0.0004,
7.1760,-0.0149,-0.0287,0.0152,0.0244,-0.0198,0.0004,
7.1770,-0.0149,-0.0287,0.0152,0.0525,-0.0974,0.0187,
7.1780,-0.3643,-0.1206,-0.0570,0.0525,-0.0974,0.0187,
7.2110,-0.6413,-0.2059,0.3373,0.0525,-0.0974,0.0187,
7.2140,-0.6413,-0.2059,0.3373,0.1185,-0.1469,0.0242,
7.2490,-0.6413,-0.2059,0.3373,0.1185,-0.1469,0.0242,
7.2520,-0.6413,-0.2059,0.3373,0.1185,-0.1469,0.0242,
7.2530,-0.6413,-0.2059,0.3373,0.1185,-0.1469,0.0242,
7.2550,-0.6413,-0.2059,0.3373,0.1185,-0.1469,0.0242,
7.2560,-0.6413,-0.2059,0.3373,0.1576,-0.1151,0.0303,
7.2880,-0.6413,-0.2059,0.3373,0.1221,-0.0894,0.0187,
7.2900,-0.3761,0.0152,0.1143,0.1221,-0.0894,0.0187,
7.3280,-0.3761,0.0152,0.1143,0.1221,-0.0894,0.0187,
7.3300,-0.3761,0.0152,0.1143,0.1221,-0.0894,0.0187,
7.3310,-0.3761,0.0152,0.1143,0.1221,-0.0894,0.0187,
7.3320,-0.3761,0.0152,0.1143,0.1221,-0.0894,0.0187,
7.3340,-0.3761,0.0152,0.1143,0.0898,-0.0443,-0.0076,
7.3350,-0.3908,0.2072,0.2675,0.0898,-0.0443,-0.0076,
7.3660,-0.3908,0.2072,0.2675,0.0360,-0.0339,0.0138,
7.4060,-0.3908,0.2072,0.2675,0.0360,-0.0339,0.0138,
7.4090,-0.3908,0.2072,0.2675,0.0360,-0.0339,0.0138,
7.4100,-0.3908,0.2072,0.2675,0.0360,-0.0339,0.0138,
7.4110,-0.3908,0.2072,0.2675,0.0360,-0.0339,0.0138,
7.4120,-0.3908,0.2072,0.2675,0.0281,-0.0375,0.0156,
7.4130,-0.2252,-0.0913,0.2018,0.0281,-0.0375,0.0156,
7.4450,-0.2252,-0.0913,0.2018,0.1056,0.0009,0.0138,
7.4470,-0.0078,0.0590,0.1947,0.1056,0.0009,0.0138,
7.4840,-0.0078,0.0590,0.1947,0.1056,0.0009,0.0138,
7.4860,-0.0078,0.0590,0.1947,0.1056,0.0009,0.0138,
7.4870,-0.0078,0.0590,0.1947,0.1056,0.0009,0.0138,
7.4890,-0.0078,0.0590,0.1947,0.1056,0.0009,0.0138,
7.4900,-0.0078,0.0590,0.1947,0.1093,0.0376,0.0358,
7.5220,-0.0078,0.0590,0.1947,0.1496,0.0669,0.0254,
7.5240,0.2527,-0.3587,-0.0482,0.1496,0.0669,0.0254,
7.5620,0.2527,-0.3587,-0.0482,0.1496,0.0669,0.0254,
7.5640,0.2527,-0.3587,-0.0482,0.1496,0.0669,0.0254,
7.5650,0.2527,-0.3587,-0.0482,0.1496,0.0669,0.0254,
7.5660,0.2527,-0.3587,-0.0482,0.1496,0.0669,0.0254,
7.5670,0.2527,-0.3587,-0.0482,0.2449,0.2203,0.0291,
7.5690,0.7290,-0.1593,-0.2633,0.2449,0.2203,0.0291,
7.6010,0.7290,-0.1593,-0.2633,0.3909,0.5031,0.0822,
7.6400,0.7290,-0.1593,-0.2633,0.3909,0.5031,0.0822,
7.6420,0.7290,-0.1593,-0.2633,0.3909,0.5031,0.0822,
7.6430,0.7290,-0.1593,-0.2633,0.3909,0.5031,0.0822,
7.6440,0.7290,-0.1593,-0.2633,0.3909,0.5031,0.0822,
7.6450,0.7290,-0.1593,-0.2633,0.5693,0.7810,-0.0479,
7.6470,2.7642,-1.5890,-0.6453,0.5693,0.7810,-0.0479,
7.6780,2.7642,-1.5890,-0.6453,0.4520,0.7334,-0.2195,
7.6810,-0.1347,1.7155,0.5237,0.4520,0.7334,-0.2195,
7.7190,-0.1347,1.7155,0.5237,0.4520,0.7334,-0.2195,
7.7210,-0.1347,1.7155,0.5237,0.4520,0.7334,-0.2195,
7.7220,-0.1347,1.7155,0.5237,0.4520,0.7334,-0.2195,
7.7230,-0.1347,1.7155,0.5237,0.4520,0.7334,-0.2195,
7.7240,-0.1347,1.7155,0.5237,0.0708,0.3156,-0.1731,
7.7560,-0.1347,1.7155,0.5237,0.0220,0.3363,-0.0742,
7.7590,-0.1301,1.6558,0.9851,0.0220,0.3363,-0.0742,
7.7960,-0.1301,1.6558,0.9851,0.0220,0.3363,-0.0742,
7.7990,-0.1301,1.6558,0.9851,0.0220,0.3363,-0.0742,
7.8000,-0.1301,1.6558,0.9851,0.0220,0.3363,-0.0742,
7.8010,-0.1301,1.6558,0.9851,0.0220,0.3363,-0.0742,
7.8020,-0.1301,1.6558,0.9851,0.2810,0.6008,-0.0173,
7.8040,0.7344,-1.5417,1.2940,0.2810,0.6008,-0.0173,
7.8340,0.7344,-1.5417,1.2940,0.4239,0.5019,0.0028,
7.8740,0.7344,-1.5417,1.2940,0.4239,0.5019,0.0028,
7.8760,0.7344,-1.5417,1.2940,0.4239,0.5019,0.0028,
7.8770,0.7344,-1.5417,1.2940,0.4239,0.5019,0.0028,
7.8790,0.7344,-1.5417,1.2940,0.4239,0.5019,0.0028,
7.8800,-0.4469,0.5061,0.8910,0.4239,0.5019,0.0028,
7.8820,-0.4469,0.5061,0.8910,0.3072,0.2105,0.0334,
7.9130,-0.4469,0.5061,0.8910,0.1557,0.0510,0.0138,
7.9150,0.3851,0.4442,0.9641,0.1557,0.0510,0.0138,
7.9510,0.3851,0.4442,0.9641,0.1557,0.0510,0.0138,
7.9520,0.3851,0.4442,0.9641,0.1557,0.0510,0.0138,
7.9530,0.3851,0.4442,0.9641,0.1557,0.0510,0.0138,
7.9530,0.3851,0.4442,0.9641,0.1557,0.0510,0.0138,
7.9540,0.3851,0.4442,0.9641,0.1368,0.0804,-0.0088,
7.9910,0.3851,0.4442,0.9641,0.1362,0.0559,-0.0229,
7.9930,0.8737,0.1826,1.2919,0.1362,0.0559,-0.0229,
8.0310,0.8737,0.1826,1.2919,0.1362,0.0559,-0.0229,
8.0330,0.8737,0.1826,1.2919,0.1362,0.0559,-0.0229,
8.0340,0.8737,0.1826,1.2919,0.1362,0.0559,-0.0229,
8.0350,0.8737,0.1826,1.2919,0.1362,0.0559,-0.0229,
8.0360,0.8737,0.1826,1.2919,0.1252,-0.1988,-0.0638,
8.0370,0.2660,1.1539,1.0845,0.1252,-0.1988,-0.0638,
8.0690,0.2660,1.1539,1.0845,0.1912,-0.4187,-0.1346,
8.1110,0.2660,1.1539,1.0845,0.1912,-0.4187,-0.1346,
8.1120,0.2660,1.1539,1.0845,0.1912,-0.4187,-0.1346,
8.1130,0.2660,1.1539,1.0845,0.1912,-0.4187,-0.1346,
8.1130,0.2660,1.1539,1.0845,0.1912,-0.4187,-0.1346,
8.1140,0.2660,1.1539,1.0845,0.6652,-0.3998,-0.0534,
8.1140,0.4154,2.5310,0.2075,0.6652,-0.3998,-0.0534,
8.1470,-1.0486,5.1169,-3.2719,0.6652,-0.3998,-0.0534,
8.1510,-1.0486,5.1169,-3.2719,0.4758,-0.3240,-0.0308,
8.1800,-1.0486,5.1169,-3.2719,0.4758,-0.3240,-0.0308,
8.1820,-1.0486,5.1169,-3.2719,0.4758,-0.3240,-0.0308,
8.1860,-1.0486,5.1169,-3.2719,0.2651,-0.9245,0.0871,
8.2250,-1.0486,5.1169,-3.2719,0.5345,-1.2275,0.0920,
8.2270,-2.0866,-1.0036,-1.5448,0.5345,-1.2275,0.0920,
8.2650,-2.0866,-1.0036,-1.5448,0.5345,-1.2275,0.0920,
8.2670,-2.0866,-1.0036,-1.5448,0.5345,-1.2275,0.0920,
8.2680,-2.0866,-1.0036,-1.5448,0.5345,-1.2275,0.0920,
8.2690,-2.0866,-1.0036,-1.5448,0.5345,-1.2275,0.0920,
8.2700,-2.0866,-1.0036,-1.5448,0.5345,-1.2275,0.0920,
8.2710,-2.0866,-1.0036,-1.5448,0.5345,-1.2275,0.0920,
8.2730,-2.0866,-1.0036,-1.5448,0.4544,-0.9966,0.0468,
8.2740,-0.8979,0.1777,-0.1771,0.4544,-0.9966,0.0468,
8.3040,-0.8979,0.1777,-0.1771,0.2565,-0.4987,0.1164,
8.3430,-0.8979,0.1777,-0.1771,0.2565,-0.4987,0.1164,
8.3450,-0.8979,0.1777,-0.1771,0.2565,-0.4987,0.1164,
8.3460,-0.8979,0.1777,-0.1771,0.2565,-0.4987,0.1164,
8.3470,-0.8979,0.1777,-0.1771,0.2565,-0.4987,0.1164,
8.3480,-0.8979,0.1777,-0.1771,0.0012,-0.4621,0.1079,
8.3500,0.5489,0.2442,0.3734,0.0012,-0.4621,0.1079,
8.3810,0.5489,0.2442,0.3734,0.0085,-0.5671,0.0291,
8.3830,-0.5375,-3.3415,1.2094,0.0085,-0.5671,0.0291,
8.4210,-0.5375,-3.3415,1.2094,0.0085,-0.5671,0.0291,
8.4230,-0.5375,-3.3415,1.2094,0.0085,-0.5671,0.0291,
8.4240,-0.5375,-3.3415,1.2094,0.0085,-0.5671,0.0291,
8.4250,-0.5375,-3.3415,1.2094,0.0085,-0.5671,0.0291,
8.4260,-0.5375,-3.3415,1.2094,0.1545,-0.6142,0.0676,
8.4600,-0.5375,-3.3415,1.2094,0.1344,-0.4187,0.0541,
8.4610,0.3553,-2.3076,1.3689,0.1344,-0.4187,0.0541,
8.4980,0.3553,-2.3076,1.3689,0.1344,-0.4187,0.0541,
8.5000,0.3553,-2.3076,1.3689,0.1344,-0.4187,0.0541,
8.5010,0.3553,-2.3076,1.3689,0.1344,-0.4187,0.0541,
8.5020,0.3553,-2.3076,1.3689,0.1344,-0.4187,0.0541,
8.5040,0.3553,-2.3076,1.3689,0.1166,-0.2513,0.0834,
8.5050,0.2211,-2.2090,1.4609,0.1166,-0.2513,0.0834,
8.5380,0.2211,-2.2090,1.4609,0.0953,-0.1982,0.0584,
8.5770,0.2211,-2.2090,1.4609,0.0953,-0.1982,0.0584,
8.5800,0.2211,-2.2090,1.4609,0.0953,-0.1982,0.0584,
8.5820,0.2211,-2.2090,1.4609,0.0953,-0.1982,0.0584,
8.5830,0.2211,-2.2090,1.4609,0.0953,-0.1982,0.0584,
8.5840,0.2211,-2.2090,1.4609,-0.0226,-0.1591,0.0871,
8.5850,-0.2194,0.0024,1.3805,-0.0226,-0.1591,0.0871,
8.6150,-0.2194,0.0024,1.3805,-0.2242,-0.0137,0.1372,
8.6160,-0.2875,2.6128,1.3511,-0.2242,-0.0137,0.1372,
8.6550,-0.2875,2.6128,1.3511,-0.2242,-0.0137,0.1372,
8.6570,-0.2875,2.6128,1.3511,-0.2242,-0.0137,0.1372,
8.6580,-0.2875,2.6128,1.3511,-0.2242,-0.0137,0.1372,
8.6600,-0.2875,2.6128,1.3511,-0.2242,-0.0137,0.1372,
8.6610,-0.2875,2.6128,1.3511,-0.0104,0.2429,0.1354,
8.6930,-0.2875,2.6128,1.3511,0.1747,0.2532,-0.0461,
8.6940,-0.9139,3.8228,-1.2532,0.1747,0.2532,-0.0461,
8.7330,-0.9139,3.8228,-1.2532,0.1747,0.2532,-0.0461,
8.7350,-0.9139,3.8228,-1.2532,0.1747,0.2532,-0.0461,
8.7370,-0.9139,3.8228,-1.2532,0.1747,0.2532,-0.0461,
8.7380,-0.9139,3.8228,-1.2532,0.1747,0.2532,-0.0461,
8.7390,-0.9139,3.8228,-1.2532,-0.2590,0.6075,-0.2324,
8.7400,1.4377,3.2722,-3.6311,-0.2590,0.6075,-0.2324,
8.7720,1.4377,3.2722,-3.6311,-0.3219,0.9753,-0.2910,
8.8020,1.4377,3.2722,-3.6311,-0.3219,0.9753,-0.2910,
8.8030,1.4377,3.2722,-3.6311,-0.3219,0.9753,-0.2910,
8.8030,1.4377,3.2722,-3.6311,-0.3219,0.9753,-0.2910,
8.8030,1.3907,-1.7837,-0.8010,-0.3219,0.9753,-0.2910,
8.8300,1.3907,-1.7837,-0.8010,-0.3152,1.0180,-0.2446,
8.8690,1.3907,-1.7837,-0.8010,-0.3152,1.0180,-0.2446,
8.8700,1.3907,-1.7837,-0.8010,-0.3152,1.0180,-0.2446,
8.8710,1.3907,-1.7837,-0.8010,-0.3152,1.0180,-0.2446,
8.8710,1.3907,-1.7837,-0.8010,-0.3152,1.0180,-0.2446,
8.8720,1.3907,-1.7837,-0.8010,-0.5107,0.7499,-0.1395,
8.8730,0.2389,0.0304,-0.3017,-0.5107,0.7499,-0.1395,
8.9090,0.2389,0.0304,-0.3017,-0.5046,0.6124,-0.0797,
8.9120,0.7742,-1.7126,0.4040,-0.5046,0.6124,-0.0797,
8.9470,0.7742,-1.7126,0.4040,-0.5046,0.6124,-0.0797,
8.9480,0.7742,-1.7126,0.4040,-0.5046,0.6124,-0.0797,
8.9480,0.7742,-1.7126,0.4040,-0.5046,0.6124,-0.0797,
8.9480,0.7742,-1.7126,0.4040,-0.5046,0.6124,-0.0797,
8.9490,0.7742,-1.7126,0.4040,-0.3042,0.6356,-0.0387,
8.9860,0.7742,-1.7126,0.4040,-0.1118,0.5660,-0.0363,
8.9870,0.1378,-2.6708,0.6590,-0.1118,0.5660,-0.0363,
9.0250,0.1378,-2.6708,0.6590,-0.1118,0.5660,-0.0363,
9.0270,0.1378,-2.6708,0.6590,-0.1118,0.5660,-0.0363,
9.0270,0.1378,-2.6708,0.6590,-0.1118,0.5660,-0.0363,
9.0270,0.1378,-2.6708,0.6590,-0.1118,0.5660,-0.0363,
9.0280,0.1378,-2.6708,0.6590,-0.1075,0.3406,-0.0381,
9.0290,-0.5807,-2.4176,0.9660,-0.1075,0.3406,-0.0381,
9.0640,-0.5807,-2.4176,0.9660,-0.0959,0.0920,0.0052,
9.1040,-0.5807,-2.4176,0.9660,-0.0959,0.0920,0.0052,
9.1060,-0.5807,-2.4176,0.9660,-0.0959,0.0920,0.0052,
9.1080,-0.5807,-2.4176,0.9660,-0.0959,0.0920,0.0052,
9.1090,-0.5807,-2.4176,0.9660,-0.0959,0.0920,0.0052,
9.1100,-0.5807,-2.4176,0.9660,0.0360,-0.0314,0.0657,
9.1110,0.3304,-1.6852,1.5285,0.0360,-0.0314,0.0657,
9.1420,0.3304,-1.6852,1.5285,0.1008,-0.1921,0.0254,
9.1440,0.4964,2.7700,0.6735,0.1008,-0.1921,0.0254,
9.1820,0.4964,2.7700,0.6735,0.1008,-0.1921,0.0254,
9.1840,0.4964,2.7700,0.6735,0.1008,-0.1921,0.0254,
9.1860,0.4964,2.7700,0.6735,0.1008,-0.1921,0.0254,
9.1880,0.4964,2.7700,0.6735,0.1008,-0.1921,0.0254,
9.1910,0.4964,2.7700,0.6735,-0.0471,-0.3955,-0.0204,
9.2200,0.4964,2.7700,0.6735,-0.1283,-0.4407,-0.1035,
9.2220,1.0113,3.3563,0.5042,-0.1283,-0.4407,-0.1035,
9.2600,1.0113,3.3563,0.5042,-0.1283,-0.4407,-0.1035,
9.2610,1.0113,3.3563,0.5042,-0.1283,-0.4407,-0.1035,
9.2620,1.0113,3.3563,0.5042,-0.1283,-0.4407,-0.1035,
9.2630,1.0113,3.3563,0.5042,-0.1283,-0.4407,-0.1035,
9.2640,0.5335,4.6496,-2.7790,-0.1283,-0.4407,-0.1035,
9.2650,0.5335,4.6496,-2.7790,0.3549,-0.3332,-0.0393,
9.2990,0.5335,4.6496,-2.7790,0.0598,-0.2434,0.0205,
9.3390,0.5335,4.6496,-2.7790,0.0598,-0.2434,0.0205,
9.3410,0.5335,4.6496,-2.7790,0.0598,-0.2434,0.0205,
9.3420,0.5335,4.6496,-2.7790,0.0598,-0.2434,0.0205,
9.3430,0.5335,4.6496,-2.7790,0.0598,-0.2434,0.0205,
9.3440,0.5335,4.6496,-2.7790,0.2229,-0.8811,0.1958,
9.3460,-2.7876,-1.3615,-2.1747,0.2229,-0.8811,0.1958,
9.3770,-2.7876,-1.3615,-2.1747,0.5613,-1.0589,0.1635,
9.3780,-1.7285,-0.3628,-0.8243,0.5613,-1.0589,0.1635,
9.4170,-1.7285,-0.3628,-0.8243,0.5613,-1.0589,0.1635,
9.4190,-1.7285,-0.3628,-0.8243,0.5613,-1.0589,0.1635,
9.4200,-1.7285,-0.3628,-0.8243,0.5613,-1.0589,0.1635,
9.4210,-1.7285,-0.3628,-0.8243,0.5613,-1.0589,0.1635,
9.4220,-1.7285,-0.3628,-0.8243,0.3561,-0.8720,0.1390,
9.4550,-1.7285,-0.3628,-0.8243,0.2443,-0.5189,0.1757,
9.4580,0.6924,-0.3130,0.2552,0.2443,-0.5189,0.1757,
9.4950,0.6924,-0.3130,0.2552,0.2443,-0.5189,0.1757,
9.4970,0.6924,-0.3130,0.2552,0.2443,-0.5189,0.1757,
9.4980,0.6924,-0.3130,0.2552,0.2443,-0.5189,0.1757,
9.5000,0.6924,-0.3130,0.2552,0.2443,-0.5189,0.1757,
9.5010,0.6924,-0.3130,0.2552,0.1600,-0.3240,0.2197,
9.5030,1.1174,-3.2913,0.8307,0.1600,-0.3240,0.2197,
9.5330,1.1174,-3.2913,0.8307,0.0513,-0.3161,0.0993,
9.5720,1.1174,-3.2913,0.8307,0.0513,-0.3161,0.0993,
9.5740,1.1174,-3.2913,0.8307,0.0513,-0.3161,0.0993,
9.5750,1.1174,-3.2913,0.8307,0.0513,-0.3161,0.0993,
9.5760,1.1174,-3.2913,0.8307,0.0513,-0.3161,0.0993,
9.5780,0.9525,-3.2966,1.8143,0.0513,-0.3161,0.0993,
9.5800,0.9525,-3.2966,1.8143,0.0488,-0.1786,-0.0076,
9.6110,0.9525,-3.2966,1.8143,0.0678,-0.0577,-0.0192,
9.6130,0.2145,-1.9967,1.5333,0.0678,-0.0577,-0.0192,
9.6510,0.2145,-1.9967,1.5333,0.0678,-0.0577,-0.0192,
9.6540,0.2145,-1.9967,1.5333,0.0678,-0.0577,-0.0192,
9.6550,0.2145,-1.9967,1.5333,0.0678,-0.0577,-0.0192,
9.6560,0.2145,-1.9967,1.5333,0.0678,-0.0577,-0.0192,
9.6570,0.2145,-1.9967,1.5333,0.0348,0.0981,-0.0986,
9.6900,0.2145,-1.9967,1.5333,-0.0306,0.1469,-0.0546,
9.6920,-0.4886,1.3343,0.9923,-0.0306,0.1469,-0.0546,
9.7290,-0.4886,1.3343,0.9923,-0.0306,0.1469,-0.0546,
9.7310,-0.4886,1.3343,0.9923,-0.0306,0.1469,-0.0546,
9.7320,-0.4886,1.3343,0.9923,-0.0306,0.1469,-0.0546,
9.7330,-0.4886,1.3343,0.9923,-0.0306,0.1469,-0.0546,
9.7340,-0.4886,1.3343,0.9923,-0.1711,0.2850,-0.0173,
9.7360,-0.2956,3.1898,0.5208,-0.1711,0.2850,-0.0173,
9.7680,-0.2956,3.1898,0.5208,-0.0819,0.5031,-0.0662,
9.8070,-0.2956,3.1898,0.5208,-0.0819,0.5031,-0.0662,
9.8090,-0.2956,3.1898,0.5208,-0.0819,0.5031,-0.0662,
9.8100,-0.2956,3.1898,0.5208,-0.0819,0.5031,-0.0662,
9.8110,-0.2956,3.1898,0.5208,-0.0819,0.5031,-0.0662,
9.8140,-0.2956,3.1898,0.5208,0.0171,0.2545,-0.1688,
9.8150,-1.1428,5.1484,-4.0146,0.0171,0.2545,-0.1688,
9.8460,-1.1428,5.1484,-4.0146,-0.5162,0.8812,-0.1884,
9.8490,2.7082,-1.7480,-1.1808,-0.5162,0.8812,-0.1884,
9.8850,2.7082,-1.7480,-1.1808,-0.5162,0.8812,-0.1884,
9.8870,2.7082,-1.7480,-1.1808,-0.5162,0.8812,-0.1884,
9.8880,2.7082,-1.7480,-1.1808,-0.5162,0.8812,-0.1884,
9.8890,2.7082,-1.7480,-1.1808,-0.5162,0.8812,-0.1884,
9.8900,2.7082,-1.7480,-1.1808,-0.1454,1.1983,-0.3466,
9.9240,2.7082,-1.7480,-1.1808,-0.1766,0.9392,-0.2428,
9.9270,-0.5008,1.0611,-1.2953,-0.1766,0.9392,-0.2428,
9.9640,-0.5008,1.0611,-1.2953,-0.1766,0.9392,-0.2428,
9.9670,-0.5008,1.0611,-1.2953,-0.1766,0.9392,-0.2428,
9.9690,-0.5008,1.0611,-1.2953,-0.1766,0.9392,-0.2428,
9.9700,-0.5008,1.0611,-1.2953,-0.1766,0.9392,-0.2428,
9.9720,-0.5008,1.0611,-1.2953,-0.5602,0.5220,-0.0748,
9.9730,-0.1173,-1.0959,0.4356,-0.5602,0.5220,-0.0748,
10.0020,-0.1173,-1.0959,0.4356,-0.4673,0.4719,0.0327,
10.0410,-0.1173,-1.0959,0.4356,-0.4673,0.4719,0.0327,
10.0430,-0.1173,-1.0959,0.4356,-0.4673,0.4719,0.0327,
10.0450,-0.1173,-1.0959,0.4356,-0.4673,0.4719,0.0327,
10.0460,-0.1173,-1.0959,0.4356,-0.4673,0.4719,0.0327,
10.0470,-0.1173,-1.0959,0.4356,-0.1931,0.4762,0.0217,
10.0490,0.5852,-4.3089,0.9629,-0.1931,0.4762,0.0217,
10.0800,0.5852,-4.3089,0.9629,-0.0874,0.3840,0.0297,
10.0830,-0.3884,-3.5234,0.8308,-0.0874,0.3840,0.0297,
10.1200,-0.3884,-3.5234,0.8308,-0.0874,0.3840,0.0297,
10.1220,-0.3884,-3.5234,0.8308,-0.0874,0.3840,0.0297,
10.1230,-0.3884,-3.5234,0.8308,-0.0874,0.3840,0.0297,
10.1240,-0.3884,-3.5234,0.8308,-0.0874,0.3840,0.0297,
10.1250,-0.3884,-3.5234,0.8308,-0.1051,0.0694,0.0853,
10.1580,-0.3884,-3.5234,0.8308,0.0049,-0.1591,0.1201,
10.1610,-0.1414,-2.1399,0.7162,0.0049,-0.1591,0.1201,
10.1630,-0.1414,-2.1399,0.7162,0.0049,-0.1591,0.1201,
10.1640,-0.1414,-2.1399,0.7162,0.0049,-0.1591,0.1201,
10.1990,-0.1414,-2.1399,0.7162,0.0635,-0.2868,0.2172,
10.2010,0.6074,1.2105,0.9484,0.0635,-0.2868,0.2172,
10.2370,0.6074,1.2105,0.9484,0.0562,-0.2373,0.1567,
10.2400,0.6074,1.2105,0.9484,0.0562,-0.2373,0.1567,
10.2410,0.6074,1.2105,0.9484,0.0562,-0.2373,0.1567,
10.2420,0.6074,1.2105,0.9484,0.0562,-0.2373,0.1567,
10.2440,0.6074,1.2105,0.9484,0.0562,-0.2373,0.1567,
10.2750,0.6074,1.2105,0.9484,-0.0556,-0.1994,0.0633,
10.2760,1.0694,4.1472,0.3718,-0.0556,-0.1994,0.0633,
10.3140,1.0694,4.1472,0.3718,0.3280,-0.3906,0.1335,
10.3160,1.0694,4.1472,0.3718,0.3280,-0.3906,0.1335,
10.3170,1.0694,4.1472,0.3718,0.3280,-0.3906,0.1335,
10.3190,1.0694,4.1472,0.3718,0.3280,-0.3906,0.1335,
10.3200,1.0694,4.1472,0.3718,0.3280,-0.3906,0.1335,
10.3210,0.6702,5.1447,-2.5486,0.3280,-0.3906,0.1335,
10.3530,0.6702,5.1447,-2.5486,0.1576,-0.3436,0.0523,
10.3920,0.6702,5.1447,-2.5486,0.0110,-0.8371,0.2117,
10.3950,0.6702,5.1447,-2.5486,0.0110,-0.8371,0.2117,
10.3960,0.6702,5.1447,-2.5486,0.0110,-0.8371,0.2117,
10.3970,0.6702,5.1447,-2.5486,0.0110,-0.8371,0.2117,
10.3990,0.6702,5.1447,-2.5486,0.0110,-0.8371,0.2117,
10.3990,-3.1361,-0.0040,-1.9297,0.0110,-0.8371,0.2117,
10.4320,-3.1361,-0.0040,-1.9297,0.5088,-0.8836,0.2178,
10.4340,-0.5800,-1.0694,-1.0775,0.5088,-0.8836,0.2178,
10.4710,-0.5800,-1.0694,-1.0775,0.3799,-0.6087,0.0621,
10.4730,-0.5800,-1.0694,-1.0775,0.3799,-0.6087,0.0621,
10.4750,-0.5800,-1.0694,-1.0775,0.3799,-0.6087,0.0621,
10.4760,-0.5800,-1.0694,-1.0775,0.3799,-0.6087,0.0621,
10.4770,-0.5800,-1.0694,-1.0775,0.3799,-0.6087,0.0621,
10.5100,-0.5800,-1.0694,-1.0775,0.1802,-0.4260,0.0633,
10.5120,-0.3101,-0.0036,0.1156,0.1802,-0.4260,0.0633,
10.5500,-0.3101,-0.0036,0.1156,0.0922,-0.4260,0.1885,
10.5520,-0.3101,-0.0036,0.1156,0.0922,-0.4260,0.1885,
10.5530,-0.3101,-0.0036,0.1156,0.0922,-0.4260,0.1885,
10.5540,-0.3101,-0.0036,0.1156,0.0922,-0.4260,0.1885,
10.5550,-0.3101,-0.0036,0.1156,0.0922,-0.4260,0.1885,
10.5570,0.0256,-3.4210,1.1275,0.0922,-0.4260,0.1885,
10.5880,0.0256,-3.4210,1.1275,-0.0599,-0.4932,-0.0009,
10.6270,0.0256,-3.4210,1.1275,0.0342,-0.3124,-0.0650,
10.6300,0.0256,-3.4210,1.1275,0.0342,-0.3124,-0.0650,
10.6310,0.0256,-3.4210,1.1275,0.0342,-0.3124,-0.0650,
10.6320,0.0256,-3.4210,1.1275,0.0342,-0.3124,-0.0650,
10.6330,0.0256,-3.4210,1.1275,0.0342,-0.3124,-0.0650,
10.6340,0.8966,-3.3445,1.5969,0.0342,-0.3124,-0.0650,
10.6670,0.8966,-3.3445,1.5969,0.0525,-0.1670,-0.0571,
10.6690,-0.0975,-1.8387,1.5288,0.0525,-0.1670,-0.0571,
10.7050,-0.0975,-1.8387,1.5288,0.0488,-0.1517,-0.0516,
10.7080,-0.0975,-1.8387,1.5288,0.0488,-0.1517,-0.0516,
10.7090,-0.0975,-1.8387,1.5288,0.0488,-0.1517,-0.0516,
10.7100,-0.0975,-1.8387,1.5288,0.0488,-0.1517,-0.0516,
10.7110,-0.0975,-1.8387,1.5288,0.0488,-0.1517,-0.0516,
10.7440,-0.0975,-1.8387,1.5288,0.0372,-0.0443,-0.0112,
10.7460,-0.0240,1.5188,1.2377,0.0372,-0.0443,-0.0112,
10.7750,-0.0240,1.5188,1.2377,-0.1259,0.1720,0.0279,
10.7760,-0.0240,1.5188,1.2377,-0.1259,0.1720,0.0279,
10.7770,-0.0240,1.5188,1.2377,-0.1259,0.1720,0.0279,
10.7770,-0.0240,1.5188,1.2377,-0.1259,0.1720,0.0279,
10.8020,-0.0240,1.5188,1.2377,-0.1631,0.3070,-0.0528,
10.8040,-0.1155,3.2176,0.7478,-0.1631,0.3070,-0.0528,
10.8410,-0.1155,3.2176,0.7478,-0.1631,0.3070,-0.0528,
10.8420,-0.1155,3.2176,0.7478,-0.1631,0.3070,-0.0528,
10.8420,-0.1155,3.2176,0.7478,-0.1631,0.3070,-0.0528,
10.8430,-0.1155,3.2176,0.7478,-0.1631,0.3070,-0.0528,
10.8430,-0.1155,3.2176,0.7478,0.1844,0.2404,-0.2818,
10.8440,-0.8664,5.2517,-3.8246,0.1844,0.2404,-0.2818,
10.8800,-0.8664,5.2517,-3.8246,-0.2987,0.7706,-0.1676,
10.9190,-0.8664,5.2517,-3.8246,-0.2987,0.7706,-0.1676,
10.9210,-0.8664,5.2517,-3.8246,-0.2987,0.7706,-0.1676,
10.9220,-0.8664,5.2517,-3.8246,-0.2987,0.7706,-0.1676,
10.9230,-0.8664,5.2517,-3.8246,-0.2987,0.7706,-0.1676,
10.9240,-0.8664,5.2517,-3.8246,-0.1833,1.2043,-0.2855,
10.9260,2.7812,-0.6597,-2.2613,-0.1833,1.2043,-0.2855,
10.9580,2.7812,-0.6597,-2.2613,-0.3562,0.9136,-0.2024,
10.9600,-0.3477,0.4120,-1.2080,-0.3562,0.9136,-0.2024,
10.9930,-0.3477,0.4120,-1.2080,-0.3562,0.9136,-0.2024,
10.9940,-0.3477,0.4120,-1.2080,-0.3562,0.9136,-0.2024,
10.9950,-0.3477,0.4120,-1.2080,-0.3562,0.9136,-0.2024,
11.0170,-0.3477,0.4120,-1.2080,-0.5938,0.6754,-0.1285,
11.0200,-0.1849,-2.8360,1.0651,-0.5938,0.6754,-0.1285,
11.0570,-0.1849,-2.8360,1.0651,-0.5938,0.6754,-0.1285,
11.0590,-0.1849,-2.8360,1.0651,-0.5938,0.6754,-0.1285,
11.0600,-0.1849,-2.8360,1.0651,-0.5938,0.6754,-0.1285,
11.0610,-0.1849,-2.8360,1.0651,-0.5938,0.6754,-0.1285,
11.0620,-0.1849,-2.8360,1.0651,-0.3806,0.6112,-0.0039,
11.0950,-0.1849,-2.8360,1.0651,-0.0825,0.4896,0.0364,
11.0960,0.0939,-4.9488,0.9113,-0.0825,0.4896,0.0364,
11.1350,0.0939,-4.9488,0.9113,-0.0825,0.4896,0.0364,
11.1370,0.0939,-4.9488,0.9113,-0.0825,0.4896,0.0364,
11.1380,0.0939,-4.9488,0.9113,-0.0825,0.4896,0.0364,
11.1390,0.0939,-4.9488,0.9113,-0.0825,0.4896,0.0364,
11.1400,0.0939,-4.9488,0.9113,0.0500,0.2661,0.0126,
11.1420,-0.0229,-3.5182,1.0927,0.0500,0.2661,0.0126,
11.1740,-0.0229,-3.5182,1.0927,0.0586,0.0547,0.0779,
11.2140,-0.0229,-3.5182,1.0927,0.0586,0.0547,0.0779,
11.2160,-0.0229,-3.5182,1.0927,0.0586,0.0547,0.0779,
11.2170,-0.0229,-3.5182,1.0927,0.0586,0.0547,0.0779,
11.2180,-0.0229,-3.5182,1.0927,0.0586,0.0547,0.0779,
11.2200,-0.0229,-3.5182,1.0927,0.1337,0.0523,0.1176,
11.2210,0.6599,-0.4435,0.7989,0.1337,0.0523,0.1176,
11.2520,0.6599,-0.4435,0.7989,0.1014,0.0162,0.0957,
11.2540,-0.4711,3.9128,0.1663,0.1014,0.0162,0.0957,
11.2910,-0.4711,3.9128,0.1663,0.1014,0.0162,0.0957,
11.2930,-0.4711,3.9128,0.1663,0.1014,0.0162,0.0957,
11.2940,-0.4711,3.9128,0.1663,0.1014,0.0162,0.0957,
11.2950,-0.4711,3.9128,0.1663,0.1014,0.0162,0.0957,
11.2960,-0.4711,3.9128,0.1663,-0.1002,-0.2812,0.0266,
11.3300,-0.4711,3.9128,0.1663,-0.1595,-0.4798,0.0114,
11.3330,0.6241,3.5854,0.3183,-0.1595,-0.4798,0.0114,
11.3700,0.6241,3.5854,0.3183,-0.1595,-0.4798,0.0114,
11.3720,0.6241,3.5854,0.3183,-0.1595,-0.4798,0.0114,
11.3730,0.6241,3.5854,0.3183,-0.1595,-0.4798,0.0114,
11.3740,0.6241,3.5854,0.3183,-0.1595,-0.4798,0.0114,
11.3750,0.6241,3.5854,0.3183,0.4037,-0.5128,0.0822,
11.3770,-1.7992,4.5967,-3.5765,0.4037,-0.5128,0.0822,
11.4080,-1.7992,4.5967,-3.5765,-0.0355,-0.7345,0.1952,
11.4460,-1.7992,4.5967,-3.5765,-0.0355,-0.7345,0.1952,
11.4470,-1.7992,4.5967,-3.5765,-0.0355,-0.7345,0.1952,
11.4480,-1.7992,4.5967,-3.5765,-0.0355,-0.7345,0.1952,
11.4480,-1.7992,4.5967,-3.5765,-0.0355,-0.7345,0.1952,
11.4490,-1.7992,4.5967,-3.5765,0.1771,-1.0772,0.2502,
11.4490,-2.0023,-2.3051,-1.0173,0.1771,-1.0772,0.2502,
11.4860,-0.1478,0.5210,-0.4262,0.1771,-1.0772,0.2502,
11.4880,-0.1478,0.5210,-0.4262,0.4660,-1.0283,0.2221,
11.5250,-0.1478,0.5210,-0.4262,0.4660,-1.0283,0.2221,
11.5260,-0.1478,0.5210,-0.4262,0.4660,-1.0283,0.2221,
11.5260,-0.1478,0.5210,-0.4262,0.4660,-1.0283,0.2221,
11.5270,-0.1478,0.5210,-0.4262,0.4660,-1.0283,0.2221,
11.5270,-0.1478,0.5210,-0.4262,0.1075,-0.6539,0.1512,
11.5640,-0.1478,0.5210,-0.4262,-0.0758,-0.4724,0.2221,
11.5650,0.3630,-1.9347,0.4844,-0.0758,-0.4724,0.2221,
11.6040,0.3630,-1.9347,0.4844,-0.0758,-0.4724,0.2221,
11.6060,0.3630,-1.9347,0.4844,-0.0758,-0.4724,0.2221,
11.6070,0.3630,-1.9347,0.4844,-0.0758,-0.4724,0.2221,
11.6080,0.3630,-1.9347,0.4844,-0.0758,-0.4724,0.2221,
11.6090,0.3630,-1.9347,0.4844,-0.0159,-0.6044,0.1586,
11.6110,0.9163,-4.6265,1.2996,-0.0159,-0.6044,0.1586,
11.6420,0.9163,-4.6265,1.2996,0.1484,-0.5623,0.0627,
11.6810,0.9163,-4.6265,1.2996,0.1484,-0.5623,0.0627,
11.6820,0.9163,-4.6265,1.2996,0.1484,-0.5623,0.0627,
11.6820,0.9163,-4.6265,1.2996,0.1484,-0.5623,0.0627,
11.6830,0.9163,-4.6265,1.2996,0.1484,-0.5623,0.0627,
11.6830,0.9163,-4.6265,1.2996,0.1588,-0.2434,-0.0943,
11.6840,1.2398,-2.5596,1.7546,0.1588,-0.2434,-0.0943,
11.7190,1.2398,-2.5596,1.7546,0.1044,-0.2880,-0.2024,
11.7220,-0.4199,-0.2105,1.8011,0.1044,-0.2880,-0.2024,
11.7590,-0.4199,-0.2105,1.8011,0.1044,-0.2880,-0.2024,
11.7610,-0.4199,-0.2105,1.8011,0.1044,-0.2880,-0.2024,
11.7630,-0.4199,-0.2105,1.8011,0.1044,-0.2880,-0.2024,
11.7640,-0.4199,-0.2105,1.8011,0.1044,-0.2880,-0.2024,
11.7650,-0.4199,-0.2105,1.8011,0.0360,-0.1701,-0.1542,
11.7970,-0.4199,-0.2105,1.8011,-0.0996,0.0254,-0.0949,
11.7980,-0.7549,2.0901,1.4421,-0.0996,0.0254,-0.0949,
11.8380,-0.7549,2.0901,1.4421,-0.0996,0.0254,-0.0949,
11.8400,-0.7549,2.0901,1.4421,-0.0996,0.0254,-0.0949,
11.8410,-0.7549,2.0901,1.4421,-0.0996,0.0254,-0.0949,
11.8420,-0.7549,2.0901,1.4421,-0.0996,0.0254,-0.0949,
11.8430,-0.7549,2.0901,1.4421,-0.0428,0.2868,-0.0632,
11.8450,-1.7725,3.7746,-0.8306,-0.0428,0.2868,-0.0632,
11.8750,-1.7725,3.7746,-0.8306,0.3475,0.1109,-0.2672,
11.9140,-1.7725,3.7746,-0.8306,-0.3598,0.7853,-0.2153,
11.9170,-1.7725,3.7746,-0.8306,-0.3598,0.7853,-0.2153,
11.9180,-1.7725,3.7746,-0.8306,-0.3598,0.7853,-0.2153,
11.9190,-1.7725,3.7746,-0.8306,-0.3598,0.7853,-0.2153,
11.9200,3.8651,3.6061,-5.1502,-0.3598,0.7853,-0.2153,
11.9350,3.8651,3.6061,-5.1502,-0.1644,1.1915,-0.3997,
11.9750,3.8651,3.6061,-5.1502,-0.1644,1.1915,-0.3997,
11.9770,3.8651,3.6061,-5.1502,-0.1644,1.1915,-0.3997,
11.9780,3.8651,3.6061,-5.1502,-0.1644,1.1915,-0.3997,
11.9800,3.8651,3.6061,-5.1502,-0.1644,1.1915,-0.3997,
11.9810,3.8651,3.6061,-5.1502,-0.1033,1.1317,-0.3411,
11.9830,0.2066,-0.0836,-1.3336,-0.1033,1.1317,-0.3411,
12.0130,0.2066,-0.0836,-1.3336,-0.4673,0.9166,-0.1243,
12.0160,0.5933,0.1689,-0.4535,-0.4673,0.9166,-0.1243,
12.0520,0.5933,0.1689,-0.4535,-0.4673,0.9166,-0.1243,
12.0550,0.5933,0.1689,-0.4535,-0.4673,0.9166,-0.1243,
12.0560,0.5933,0.1689,-0.4535,-0.4673,0.9166,-0.1243,
12.0570,0.5933,0.1689,-0.4535,-0.4673,0.9166,-0.1243,
12.0580,0.5933,0.1689,-0.4535,-0.4118,1.0015,-0.0112,
12.0910,0.5933,0.1689,-0.4535,-0.1980,1.0303,-0.0131,
12.0940,0.8873,-4.2295,1.3435,-0.1980,1.0303,-0.0131,
12.1300,0.8873,-4.2295,1.3435,-0.1980,1.0303,-0.0131,
12.1320,0.8873,-4.2295,1.3435,-0.1980,1.0303,-0.0131,
12.1340,0.8873,-4.2295,1.3435,-0.1980,1.0303,-0.0131,
12.1350,0.8873,-4.2295,1.3435,-0.1980,1.0303,-0.0131,
12.1360,0.8873,-4.2295,1.3435,0.0659,0.8720,-0.0033,
12.1370,0.2135,-5.1564,1.3194,0.0659,0.8720,-0.0033,
12.1690,0.2135,-5.1564,1.3194,0.0995,0.5965,-0.0448,
12.2090,0.2135,-5.1564,1.3194,0.0995,0.5965,-0.0448,
12.2110,0.2135,-5.1564,1.3194,0.0995,0.5965,-0.0448,
12.2120,0.2135,-5.1564,1.3194,0.0995,0.5965,-0.0448,
12.2130,0.2135,-5.1564,1.3194,0.0995,0.5965,-0.0448,
12.2140,0.2135,-5.1564,1.3194,0.0800,0.2783,-0.0943,
12.2160,-0.5144,-1.5657,1.0756,0.0800,0.2783,-0.0943,
12.2470,-0.5144,-1.5657,1.0756,-0.0403,0.0565,-0.0571,
12.2500,0.2254,3.1317,0.0633,-0.0403,0.0565,-0.0571,
12.2860,0.2254,3.1317,0.0633,-0.0403,0.0565,-0.0571,
12.2890,0.2254,3.1317,0.0633,-0.0403,0.0565,-0.0571,
12.2900,0.2254,3.1317,0.0633,-0.0403,0.0565,-0.0571,
12.2920,0.2254,3.1317,0.0633,-0.0403,0.0565,-0.0571,
12.2930,0.2254,3.1317,0.0633,-0.2920,-0.1176,-0.0876,
12.3240,0.2254,3.1317,0.0633,-0.2089,-0.3833,-0.0509,
12.3260,0.1351,3.5932,0.8186,-0.2089,-0.3833,-0.0509,
12.3650,0.1351,3.5932,0.8186,-0.2089,-0.3833,-0.0509,
12.3670,0.1351,3.5932,0.8186,-0.2089,-0.3833,-0.0509,
12.3680,0.1351,3.5932,0.8186,-0.2089,-0.3833,-0.0509,
12.3700,0.1351,3.5932,0.8186,-0.2089,-0.3833,-0.0509,
12.3710,0.1351,3.5932,0.8186,0.3457,-0.5231,0.1781,
12.3730,0.1053,3.4028,-2.2526,0.3457,-0.5231,0.1781,
12.4030,0.1053,3.4028,-2.2526,0.0397,-0.7162,0.1525,
12.4420,0.1053,3.4028,-2.2526,0.0397,-0.7162,0.1525,
12.4430,0.1053,3.4028,-2.2526,0.0397,-0.7162,0.1525,
12.4440,0.1053,3.4028,-2.2526,0.0397,-0.7162,0.1525,
12.4440,0.1053,3.4028,-2.2526,0.0397,-0.7162,0.1525,
12.4450,0.1053,3.4028,-2.2526,0.4202,-1.2018,0.2490,
12.4460,-3.7811,-0.7621,-2.1350,0.4202,-1.2018,0.2490,
12.4810,-3.7811,-0.7621,-2.1350,0.5308,-1.1065,0.2838,
12.4840,-0.6673,-0.0524,-1.0980,0.5308,-1.1065,0.2838,
12.5210,-0.6673,-0.0524,-1.0980,0.5308,-1.1065,0.2838,
12.5220,-0.6673,-0.0524,-1.0980,0.5308,-1.1065,0.2838,
12.5240,-0.6673,-0.0524,-1.0980,0.5308,-1.1065,0.2838,
12.5250,-0.6673,-0.0524,-1.0980,0.5308,-1.1065,0.2838,
12.5260,-0.6673,-0.0524,-1.0980,0.2180,-0.8298,0.1775,
12.5600,-0.6673,-0.0524,-1.0980,0.0641,-0.7046,0.2312,
12.5620,0.4973,-0.1512,0.0852,0.0641,-0.7046,0.2312,
12.5990,0.4973,-0.1512,0.0852,0.0641,-0.7046,0.2312,
12.6010,0.4973,-0.1512,0.0852,0.0641,-0.7046,0.2312,
12.6020,0.4973,-0.1512,0.0852,0.0641,-0.7046,0.2312,
12.6030,0.4973,-0.1512,0.0852,0.0641,-0.7046,0.2312,
12.6040,0.4973,-0.1512,0.0852,-0.0672,-0.7370,0.1714,
12.6060,0.5405,-3.7352,1.0822,-0.0672,-0.7370,0.1714,
12.6370,0.5405,-3.7352,1.0822,0.0635,-0.6203,0.0847,
12.6780,0.5405,-3.7352,1.0822,0.0635,-0.6203,0.0847,
12.6800,0.5405,-3.7352,1.0822,0.0635,-0.6203,0.0847,
12.6820,0.5405,-3.7352,1.0822,0.0635,-0.6203,0.0847,
12.6830,0.5405,-3.7352,1.0822,0.0635,-0.6203,0.0847,
12.6840,0.5405,-3.7352,1.0822,0.1301,-0.4095,0.0309,
12.6850,1.2011,-3.8666,1.7620,0.1301,-0.4095,0.0309,
12.7150,1.2011,-3.8666,1.7620,0.1020,-0.2898,-0.0027,
12.7170,-0.5352,-1.5171,1.4280,0.1020,-0.2898,-0.0027,
12.7550,-0.5352,-1.5171,1.4280,0.1020,-0.2898,-0.0027,
12.7570,-0.5352,-1.5171,1.4280,0.1020,-0.2898,-0.0027,
12.7580,-0.5352,-1.5171,1.4280,0.1020,-0.2898,-0.0027,
12.7600,-0.5352,-1.5171,1.4280,0.1020,-0.2898,-0.0027,
12.7610,-0.5352,-1.5171,1.4280,0.1374,-0.2702,-0.0546,
12.7930,-0.5352,-1.5171,1.4280,0.0464,-0.1591,-0.0473,
12.7940,0.0137,1.7895,0.7670,0.0464,-0.1591,-0.0473,
12.8330,0.0137,1.7895,0.7670,0.0464,-0.1591,-0.0473,
12.8360,0.0137,1.7895,0.7670,0.0464,-0.1591,-0.0473,
12.8370,0.0137,1.7895,0.7670,0.0464,-0.1591,-0.0473,
12.8380,0.0137,1.7895,0.7670,0.0464,-0.1591,-0.0473,
12.8390,0.0137,1.7895,0.7670,-0.0269,0.0938,-0.0314,
12.8410,0.7589,3.0375,0.5640,-0.0269,0.0938,-0.0314,
12.8730,0.7589,3.0375,0.5640,0.1722,0.3394,-0.3246,
12.9110,0.7589,3.0375,0.5640,0.1722,0.3394,-0.3246,
12.9130,0.7589,3.0375,0.5640,0.1722,0.3394,-0.3246,
12.9140,0.7589,3.0375,0.5640,0.1722,0.3394,-0.3246,
12.9150,0.7589,3.0375,0.5640,0.1722,0.3394,-0.3246,
12.9170,0.7589,3.0375,0.5640,0.0464,0.3076,-0.2764,
12.9180,-1.2267,5.1855,-3.6606,0.0464,0.3076,-0.2764,
12.9510,-1.2267,5.1855,-3.6606,-0.3867,1.0797,-0.4584,
12.9550,3.2186,-0.9224,-1.8862,-0.3867,1.0797,-0.4584,
12.9890,3.2186,-0.9224,-1.8862,-0.3867,1.0797,-0.4584,
12.9900,3.2186,-0.9224,-1.8862,-0.3867,1.0797,-0.4584,
12.9900,3.2186,-0.9224,-1.8862,-0.3867,1.0797,-0.4584,
12.9920,3.2186,-0.9224,-1.8862,-0.3867,1.0797,-0.4584,
12.9920,3.2186,-0.9224,-1.8862,-0.0275,1.2068,-0.4028,
13.0280,3.2186,-0.9224,-1.8862,-0.3763,0.9062,-0.3784,
13.0300,-0.6650,0.4108,-1.3462,-0.3763,0.9062,-0.3784,
13.0670,-0.6650,0.4108,-1.3462,-0.3763,0.9062,-0.3784,
13.0690,-0.6650,0.4108,-1.3462,-0.3763,0.9062,-0.3784,
13.0710,-0.6650,0.4108,-1.3462,-0.3763,0.9062,-0.3784,
13.0720,-0.6650,0.4108,-1.3462,-0.3763,0.9062,-0.3784,
13.0730,-0.6650,0.4108,-1.3462,-0.4582,0.8867,-0.2159,
13.0740,0.6901,-1.9904,1.0002,-0.4582,0.8867,-0.2159,
13.1060,0.6901,-1.9904,1.0002,-0.2871,1.0962,-0.1420,
13.1460,0.6901,-1.9904,1.0002,-0.2871,1.0962,-0.1420,
13.1480,0.6901,-1.9904,1.0002,-0.2871,1.0962,-0.1420,
13.1490,0.6901,-1.9904,1.0002,-0.2871,1.0962,-0.1420,
13.1500,0.6901,-1.9904,1.0002,-0.2871,1.0962,-0.1420,
13.1510,0.6901,-1.9904,1.0002,-0.1118,1.1640,-0.0363,
13.1530,1.1449,-4.5361,1.1465,-0.1118,1.1640,-0.0363,
13.1850,1.1449,-4.5361,1.1465,-0.1051,0.9044,0.0004,
13.1870,-0.7313,-2.7252,0.8879,-0.1051,0.9044,0.0004,
13.2230,-0.7313,-2.7252,0.8879,-0.1051,0.9044,0.0004,
13.2240,-0.7313,-2.7252,0.8879,-0.1051,0.9044,0.0004,
13.2250,-0.7313,-2.7252,0.8879,-0.1051,0.9044,0.0004,
13.2250,-0.7313,-2.7252,0.8879,-0.1051,0.9044,0.0004,
13.2260,-0.7313,-2.7252,0.8879,-0.1185,0.5764,-0.0638,
13.2630,-0.7313,-2.7252,0.8879,-0.1918,0.2435,-0.0106,
13.2650,-0.3637,0.5365,0.7048,-0.1918,0.2435,-0.0106,
13.3020,-0.3637,0.5365,0.7048,-0.1918,0.2435,-0.0106,
13.3040,-0.3637,0.5365,0.7048,-0.1918,0.2435,-0.0106,
13.3050,-0.3637,0.5365,0.7048,-0.1918,0.2435,-0.0106,
13.3060,-0.3637,0.5365,0.7048,-0.1918,0.2435,-0.0106,
13.3070,-0.1356,1.9783,0.9318,-0.1918,0.2435,-0.0106,
13.3090,-0.1356,1.9783,0.9318,-0.4014,-0.0265,0.0236,
13.3410,-0.1356,1.9783,0.9318,-0.3617,-0.0742,-0.0070,
13.3800,-0.1356,1.9783,0.9318,-0.3617,-0.0742,-0.0070,
13.3820,-0.1356,1.9783,0.9318,-0.3617,-0.0742,-0.0070,
13.3830,-0.1356,1.9783,0.9318,-0.3617,-0.0742,-0.0070,
13.3840,-0.1356,1.9783,0.9318,-0.3617,-0.0742,-0.0070,
13.3850,-0.1356,1.9783,0.9318,0.1069,-0.1713,0.0376,
13.3870,1.0087,2.2103,1.1244,0.1069,-0.1713,0.0376,
13.4170,1.0087,2.2103,1.1244,0.0739,-0.2446,-0.0002,
13.4190,-1.7860,5.2002,-3.8329,0.0739,-0.2446,-0.0002,
13.4580,-1.7860,5.2002,-3.8329,0.0739,-0.2446,-0.0002,
13.4600,-1.7860,5.2002,-3.8329,0.0739,-0.2446,-0.0002,
13.4600,-1.7860,5.2002,-3.8329,0.0739,-0.2446,-0.0002,
13.4610,-1.7860,5.2002,-3.8329,0.0739,-0.2446,-0.0002,
13.4620,-1.7860,5.2002,-3.8329,0.0403,-0.5409,0.1519,
13.4960,-1.7860,5.2002,-3.8329,0.4257,-0.8390,0.3168,
13.5000,-2.4969,-0.7494,-1.9498,0.4257,-0.8390,0.3168,
13.5010,-2.4969,-0.7494,-1.9498,0.4257,-0.8390,0.3168,
13.5010,-2.4969,-0.7494,-1.9498,0.4257,-0.8390,0.3168,
13.5350,-2.4969,-0.7494,-1.9498,0.4007,-0.8109,0.2710,
13.5360,-0.9679,0.0100,-0.7325,0.4007,-0.8109,0.2710,
13.5740,-0.9679,0.0100,-0.7325,0.1789,-0.4981,0.1512,
13.5750,-0.9679,0.0100,-0.7325,0.1789,-0.4981,0.1512,
13.5750,-0.9679,0.0100,-0.7325,0.1789,-0.4981,0.1512,
13.5750,-0.9679,0.0100,-0.7325,0.1789,-0.4981,0.1512,
13.5760,-0.9679,0.0100,-0.7325,0.1789,-0.4981,0.1512,
13.6130,-0.9679,0.0100,-0.7325,0.0794,-0.3808,0.1641,
13.6140,0.3057,-0.8211,-0.0708,0.0794,-0.3808,0.1641,
13.6520,0.3057,-0.8211,-0.0708,0.0195,-0.5250,0.0627,
13.6530,0.3057,-0.8211,-0.0708,0.0195,-0.5250,0.0627,
13.6530,0.3057,-0.8211,-0.0708,0.0195,-0.5250,0.0627,
13.6540,0.3057,-0.8211,-0.0708,0.0195,-0.5250,0.0627,
13.6540,0.3057,-0.8211,-0.0708,0.0195,-0.5250,0.0627,
13.6540,-0.3635,-3.6486,1.2016,0.0195,-0.5250,0.0627,
13.6910,-0.3635,-3.6486,1.2016,0.1252,-0.5378,0.0804,
13.7300,-0.3635,-3.6486,1.2016,0.1276,-0.3882,0.0584,
13.7320,-0.3635,-3.6486,1.2016,0.1276,-0.3882,0.0584,
13.7330,-0.3635,-3.6486,1.2016,0.1276,-0.3882,0.0584,
13.7330,-0.3635,-3.6486,1.2016,0.1276,-0.3882,0.0584,
13.7340,-0.3635,-3.6486,1.2016,0.1276,-0.3882,0.0584,
13.7340,0.8483,-3.0050,1.5020,0.1276,-0.3882,0.0584,
13.7700,0.8483,-3.0050,1.5020,0.0116,-0.3564,-0.0491,
13.7710,-0.7034,-1.4667,1.0234,0.0116,-0.3564,-0.0491,
13.8100,-0.7034,-1.4667,1.0234,-0.0379,-0.2684,-0.0357,
13.8120,-0.7034,-1.4667,1.0234,-0.0379,-0.2684,-0.0357,
13.8130,-0.7034,-1.4667,1.0234,-0.0379,-0.2684,-0.0357,
13.8140,-0.7034,-1.4667,1.0234,-0.0379,-0.2684,-0.0357,
13.8150,-0.7034,-1.4667,1.0234,-0.0379,-0.2684,-0.0357,
13.8490,-0.7034,-1.4667,1.0234,-0.3128,-0.0516,-0.0644,
13.8510,0.1808,0.2911,1.0461,-0.3128,-0.0516,-0.0644,
13.8770,0.1808,0.2911,1.0461,-0.3128,-0.0516,-0.0644,
13.8790,0.1808,0.2911,1.0461,-0.3128,-0.0516,-0.0644,
13.8800,0.1808,0.2911,1.0461,-0.3128,-0.0516,-0.0644,
13.9070,0.1808,0.2911,1.0461,-0.2725,0.1561,-0.0259,
13.9090,-0.7133,0.0901,1.9950,-0.2725,0.1561,-0.0259,
13.9460,-0.7133,0.0901,1.9950,-0.2725,0.1561,-0.0259,
13.9490,-0.7133,0.0901,1.9950,-0.2725,0.1561,-0.0259,
13.9510,-0.7133,0.0901,1.9950,-0.2725,0.1561,-0.0259,
13.9520,-0.7133,0.0901,1.9950,-0.2725,0.1561,-0.0259,
13.9530,-0.9970,4.6884,-2.0209,-0.2725,0.1561,-0.0259,
13.9550,-0.9970,4.6884,-2.0209,0.3158,0.0871,-0.0723,
13.9850,-0.9970,4.6884,-2.0209,0.1997,0.0773,0.1390,
14.0240,-0.9970,4.6884,-2.0209,0.1997,0.0773,0.1390,
14.0260,-0.9970,4.6884,-2.0209,0.1997,0.0773,0.1390,
14.0270,-0.9970,4.6884,-2.0209,0.1997,0.0773,0.1390,
14.0290,-0.9970,4.6884,-2.0209,0.1997,0.0773,0.1390,
14.0300,-0.9970,4.6884,-2.0209,-0.3659,0.5312,-0.2116,
14.0320,0.6716,1.3176,-1.3018,-0.3659,0.5312,-0.2116,
14.0630,0.6716,1.3176,-1.3018,0.1417,0.5214,-0.1249,
14.0650,0.8136,0.3820,-3.1660,0.1417,0.5214,-0.1249,
14.1020,0.8136,0.3820,-3.1660,0.1417,0.5214,-0.1249,
14.1040,0.8136,0.3820,-3.1660,0.1417,0.5214,-0.1249,
14.1050,0.8136,0.3820,-3.1660,0.1417,0.5214,-0.1249,
14.1070,0.8136,0.3820,-3.1660,0.1417,0.5214,-0.1249,
14.1080,0.8136,0.3820,-3.1660,-0.1656,0.5043,-0.1774,
14.1410,-0.7111,-0.3116,-1.7693,-0.1656,0.5043,-0.1774,
14.1440,-0.7111,-0.3116,-1.7693,-0.4423,0.2642,0.0077,
14.1760,-0.7111,-0.3116,-1.7693,-0.4423,0.2642,0.0077,
14.1770,-0.7111,-0.3116,-1.7693,-0.4423,0.2642,0.0077,
14.1800,-0.7111,-0.3116,-1.7693,-0.3702,0.0669,0.0450,
14.1820,1.3562,-1.3011,-0.8994,-0.3702,0.0669,0.0450,
14.2190,1.3562,-1.3011,-0.8994,-0.3989,0.1036,0.0773,
14.2450,1.3562,-1.3011,-0.8994,-0.3898,0.3033,0.1164,
14.2480,1.3562,-1.3011,-0.8994,-0.3898,0.3033,0.1164,
14.2500,1.3562,-1.3011,-0.8994,-0.3898,0.3033,0.1164,
14.2510,1.3562,-1.3011,-0.8994,-0.3898,0.3033,0.1164,
14.2520,1.3562,-1.3011,-0.8994,-0.3898,0.3033,0.1164,
14.2530,1.3562,-1.3011,-0.8994,-0.3898,0.3033,0.1164,
14.2540,1.3513,-2.0211,-0.0388,-0.3898,0.3033,0.1164,
14.2770,1.3513,-2.0211,-0.0388,-0.2377,0.3901,0.0028,
14.3170,1.3513,-2.0211,-0.0388,-0.2377,0.3901,0.0028,
14.3200,1.3513,-2.0211,-0.0388,-0.2377,0.3901,0.0028,
14.3210,1.3513,-2.0211,-0.0388,-0.2377,0.3901,0.0028,
14.3220,1.3513,-2.0211,-0.0388,-0.2377,0.3901,0.0028,
14.3230,1.3513,-2.0211,-0.0388,-0.2743,0.4402,-0.0253,
14.3250,0.4939,-2.0719,-0.3772,-0.2743,0.4402,-0.0253,
14.3550,0.4939,-2.0719,-0.3772,-0.3012,0.4249,0.0242,
14.3570,0.1691,-1.5284,0.0136,-0.3012,0.4249,0.0242,
14.3950,0.1691,-1.5284,0.0136,-0.3012,0.4249,0.0242,
14.3970,0.1691,-1.5284,0.0136,-0.3012,0.4249,0.0242,
14.3980,0.1691,-1.5284,0.0136,-0.3012,0.4249,0.0242,
14.4000,0.1691,-1.5284,0.0136,-0.3012,0.4249,0.0242,
14.4010,0.1691,-1.5284,0.0136,-0.3281,0.1305,0.0321,
14.4340,-1.1698,-0.3764,-0.3209,-0.3281,0.1305,0.0321,
14.4370,-1.1698,-0.3764,-0.3209,-0.4771,-0.3356,0.0541,
14.4650,-1.1698,-0.3764,-0.3209,-0.4771,-0.3356,0.0541,
14.4670,-1.1698,-0.3764,-0.3209,-0.4771,-0.3356,0.0541,
14.4680,-1.1698,-0.3764,-0.3209,-0.4771,-0.3356,0.0541,
14.4920,-1.1698,-0.3764,-0.3209,-0.4673,-0.6081,0.0902,
14.4940,0.4132,-0.0905,-0.0521,-0.4673,-0.6081,0.0902,
14.5320,0.4132,-0.0905,-0.0521,-0.4673,-0.6081,0.0902,
14.5340,0.4132,-0.0905,-0.0521,-0.4673,-0.6081,0.0902,
14.5350,0.4132,-0.0905,-0.0521,-0.4673,-0.6081,0.0902,
14.5360,0.4132,-0.0905,-0.0521,-0.4673,-0.6081,0.0902,
14.5370,0.4132,-0.0905,-0.0521,-0.3366,-0.5684,0.1317,
14.5390,0.5473,0.9745,-0.8106,-0.3366,-0.5684,0.1317,
14.5700,0.5473,0.9745,-0.8106,-0.3195,-0.3405,0.1262,
14.6110,0.1857,-1.2448,-0.2073,-0.3195,-0.3405,0.1262,
14.6140,0.1857,-1.2448,-0.2073,-0.3195,-0.3405,0.1262,
14.6150,0.1857,-1.2448,-0.2073,-0.3195,-0.3405,0.1262,
14.6160,0.1857,-1.2448,-0.2073,-0.3195,-0.3405,0.1262,
14.6170,0.1857,-1.2448,-0.2073,-0.3195,-0.3405,0.1262,
14.6180,0.1857,-1.2448,-0.2073,-0.2309,-0.0852,0.1219,
14.6490,0.1857,-1.2448,-0.2073,-0.1112,-0.1799,0.1091,
14.6520,-1.0494,-1.0348,-0.6547,-0.1112,-0.1799,0.1091,
14.6830,-1.0494,-1.0348,-0.6547,-0.1430,-0.4291,0.1519,
14.6850,-1.0494,-1.0348,-0.6547,-0.1430,-0.4291,0.1519,
14.6870,-1.0494,-1.0348,-0.6547,-0.1430,-0.4291,0.1519,
14.6880,-1.0494,-1.0348,-0.6547,-0.1430,-0.4291,0.1519,
14.7080,-1.0494,-1.0348,-0.6547,-0.1210,-0.4272,0.1036,
14.7110,-0.2292,-0.2282,-0.1353,-0.1210,-0.4272,0.1036,
14.7470,-0.2292,-0.2282,-0.1353,-0.1210,-0.4272,0.1036,
14.7490,-0.2292,-0.2282,-0.1353,-0.1210,-0.4272,0.1036,
14.7500,-0.2292,-0.2282,-0.1353,-0.1210,-0.4272,0.1036,
14.7510,-0.2292,-0.2282,-0.1353,-0.1210,-0.4272,0.1036,
14.7520,-0.2292,-0.2282,-0.1353,-0.0935,-0.2562,0.1036,
14.7850,-0.2292,-0.2282,-0.1353,-0.1002,-0.2544,0.1213,
14.7880,-0.2139,0.5068,-0.4336,-0.1002,-0.2544,0.1213,
14.8240,-0.2139,0.5068,-0.4336,-0.1002,-0.2544,0.1213,
14.8260,-0.2139,0.5068,-0.4336,-0.1002,-0.2544,0.1213,
14.8270,-0.2139,0.5068,-0.4336,-0.1002,-0.2544,0.1213,
14.8290,-0.2139,0.5068,-0.4336,-0.1002,-0.2544,0.1213,
14.8300,-0.0526,-0.4180,-0.1106,-0.1002,-0.2544,0.1213,
14.8310,-0.0526,-0.4180,-0.1106,-0.0403,-0.2556,0.0749,
14.8630,-0.0526,-0.4180,-0.1106,-0.0220,-0.1053,0.0346,
14.8960,-0.0526,-0.4180,-0.1106,-0.0220,-0.1053,0.0346,
14.8990,-0.0526,-0.4180,-0.1106,-0.0220,-0.1053,0.0346,
14.9000,-0.0526,-0.4180,-0.1106,-0.0220,-0.1053,0.0346,
14.9010,-0.1005,0.0007,-0.1722,-0.0220,-0.1053,0.0346,
14.9220,-0.1005,0.0007,-0.1722,-0.0220,-0.0381,0.0273,
14.9610,-0.1005,0.0007,-0.1722,-0.0220,-0.0381,0.0273,
14.9630,-0.1005,0.0007,-0.1722,-0.0220,-0.0381,0.0273,
14.9650,-0.1005,0.0007,-0.1722,-0.0220,-0.0381,0.0273,
14.9660,-0.1005,0.0007,-0.1722,-0.0220,-0.0381,0.0273,
14.9680,-0.0532,0.0385,-0.0968,-0.0220,-0.0381,0.0273,
14.9700,-0.0532,0.0385,-0.0968,-0.0122,0.0034,0.0156,
15.0000,-0.3534,0.1380,0.0940,-0.0122,0.0034,0.0156,
15.0030,-0.3534,0.1380,0.0940,-0.0330,0.0315,0.0144,
15.0390,-0.3534,0.1380,0.0940,-0.0330,0.0315,0.0144,
15.0410,-0.3534,0.1380,0.0940,-0.0330,0.0315,0.0144,
15.0420,-0.3534,0.1380,0.0940,-0.0330,0.0315,0.0144,
15.0430,-0.3534,0.1380,0.0940,-0.0330,0.0315,0.0144,
15.0440,-0.3534,0.1380,0.0940,-0.0550,0.0352,0.0327,
15.0780,-0.3534,0.1380,0.0940,-0.0416,-0.0100,0.0505,
15.0810,-0.3742,-0.0054,0.1354,-0.0416,-0.0100,0.0505,
15.1150,-0.3742,-0.0054,0.1354,-0.0324,-0.0583,0.0553,
15.1170,-0.3742,-0.0054,0.1354,-0.0324,-0.0583,0.0553,
15.1170,-0.3742,-0.0054,0.1354,-0.0324,-0.0583,0.0553,
15.1170,-0.3742,-0.0054,0.1354,-0.0324,-0.0583,0.0553,
15.1370,-0.3742,-0.0054,0.1354,-0.0318,-0.0980,0.0321,
15.1400,-0.1914,0.0331,-0.0009,-0.0318,-0.0980,0.0321,
15.1760,-0.1914,0.0331,-0.0009,-0.0318,-0.0980,0.0321,
15.1780,-0.1914,0.0331,-0.0009,-0.0318,-0.0980,0.0321,
15.1800,-0.1914,0.0331,-0.0009,-0.0318,-0.0980,0.0321,
15.1810,-0.1914,0.0331,-0.0009,-0.0318,-0.0980,0.0321,
15.1820,0.0532,0.0655,-0.0716,-0.0318,-0.0980,0.0321,
15.1840,0.0532,0.0655,-0.0716,-0.0587,-0.0900,0.0260,
15.2150,0.0532,0.0655,-0.0716,-0.0648,-0.0864,0.0016,
15.2520,0.0044,0.0000,0.0894,-0.0648,-0.0864,0.0016,
15.2550,0.0044,0.0000,0.0894,-0.0648,-0.0864,0.0016,
15.2560,0.0044,0.0000,0.0894,-0.0648,-0.0864,0.0016,
15.2570,0.0044,0.0000,0.0894,-0.0648,-0.0864,0.0016,
15.2740,0.0044,0.0000,0.0894,-0.0507,-0.0852,-0.0076,
15.3130,0.0044,0.0000,0.0894,-0.0507,-0.0852,-0.0076,
15.3150,0.0044,0.0000,0.0894,-0.0507,-0.0852,-0.0076,
15.3160,0.0044,0.0000,0.0894,-0.0507,-0.0852,-0.0076,
15.3170,0.0044,0.0000,0.0894,-0.0507,-0.0852,-0.0076,
15.3180,0.0044,0.0000,0.0894,-0.0428,-0.0558,-0.0155,
15.3200,0.0460,-0.0350,0.0745,-0.0428,-0.0558,-0.0155,
15.3520,0.0460,-0.0350,0.0745,-0.0251,-0.0522,-0.0143,
15.3540,0.0677,0.0115,0.1017,-0.0251,-0.0522,-0.0143,
15.3910,0.0677,0.0115,0.1017,-0.0251,-0.0522,-0.0143,
15.3950,0.0677,0.0115,0.1017,-0.0251,-0.0522,-0.0143,
15.3970,0.0677,0.0115,0.1017,-0.0251,-0.0522,-0.0143,
15.3980,0.0677,0.0115,0.1017,-0.0251,-0.0522,-0.0143,
15.3990,0.0677,0.0115,0.1017,-0.0147,-0.0369,-0.0137,
15.4300,0.0696,0.0621,0.0690,-0.0147,-0.0369,-0.0137,
15.4320,0.0696,0.0621,0.0690,-0.0074,-0.0217,-0.0125,
15.4700,0.0696,0.0621,0.0690,-0.0074,-0.0217,-0.0125,
15.4710,0.0696,0.0621,0.0690,-0.0074,-0.0217,-0.0125,
15.4730,0.0696,0.0621,0.0690,-0.0074,-0.0217,-0.0125,
15.4740,0.0696,0.0621,0.0690,-0.0074,-0.0217,-0.0125,
15.4750,0.0696,0.0621,0.0690,-0.0171,-0.0259,-0.0161,
15.4770,0.0900,0.0962,0.1052,-0.0171,-0.0259,-0.0161,
15.5080,0.0900,0.0962,0.1052,-0.0269,-0.0259,-0.0149,
15.5460,0.0900,0.0962,0.1052,-0.0269,-0.0259,-0.0149,
15.5470,0.0900,0.0962,0.1052,-0.0269,-0.0259,-0.0149,
15.5480,0.0900,0.0962,0.1052,-0.0269,-0.0259,-0.0149,
15.5480,0.0900,0.0962,0.1052,-0.0269,-0.0259,-0.0149,
15.5490,0.0900,0.0962,0.1052,-0.0293,-0.0332,-0.0112,
15.5490,0.0730,0.0283,0.1115,-0.0293,-0.0332,-0.0112,
15.5860,0.0730,0.0283,0.1115,-0.0245,-0.0308,-0.0161,
15.5880,0.0691,-0.0616,0.0394,-0.0245,-0.0308,-0.0161,
15.6270,0.0691,-0.0616,0.0394,-0.0245,-0.0308,-0.0161,
15.6290,0.0691,-0.0616,0.0394,-0.0245,-0.0308,-0.0161,
15.6300,0.0691,-0.0616,0.0394,-0.0245,-0.0308,-0.0161,
15.6310,0.0691,-0.0616,0.0394,-0.0245,-0.0308,-0.0161,
15.6320,0.0691,-0.0616,0.0394,-0.0177,-0.0259,-0.0149,
15.6640,0.0691,-0.0616,0.0394,-0.0006,-0.0058,-0.0143,
15.6660,-0.0162,0.0470,-0.0041,-0.0006,-0.0058,-0.0143,
15.7030,-0.0162,0.0470,-0.0041,-0.0006,-0.0058,-0.0143,
15.7050,-0.0162,0.0470,-0.0041,-0.0006,-0.0058,-0.0143,
15.7060,-0.0162,0.0470,-0.0041,-0.0006,-0.0058,-0.0143,
15.7070,-0.0162,0.0470,-0.0041,-0.0006,-0.0058,-0.0143,
15.7090,-0.0162,0.0470,-0.0041,0.0091,-0.0210,0.0065,
15.7100,-0.0094,-0.0779,0.0223,0.0091,-0.0210,0.0065,
15.7420,-0.0094,-0.0779,0.0223,0.0201,-0.0113,0.0046,
15.7810,-0.0094,-0.0779,0.0223,0.0201,-0.0113,0.0046,
15.7830,-0.0094,-0.0779,0.0223,0.0201,-0.0113,0.0046,
15.7850,-0.0094,-0.0779,0.0223,0.0201,-0.0113,0.0046,
15.7860,-0.0094,-0.0779,0.0223,0.0201,-0.0113,0.0046,
15.7870,-0.0094,-0.0779,0.0223,0.0104,-0.0070,0.0059,
15.7880,-0.0964,0.0537,0.0795,0.0104,-0.0070,0.0059,
15.8200,-0.0964,0.0537,0.0795,0.0152,-0.0198,0.0065,
15.8220,-0.1021,0.0275,0.1043,0.0152,-0.0198,0.0065,
15.8600,-0.1021,0.0275,0.1043,0.0152,-0.0198,0.0065,
15.8620,-0.1021,0.0275,0.1043,0.0152,-0.0198,0.0065,
15.8630,-0.1021,0.0275,0.1043,0.0152,-0.0198,0.0065,
15.8640,-0.1021,0.0275,0.1043,0.0152,-0.0198,0.0065,
15.8650,-0.1021,0.0275,0.1043,0.0238,-0.0210,0.0071,
15.8970,-0.1021,0.0275,0.1043,0.0097,0.0022,-0.0039,
15.8990,0.0749,0.0347,0.0755,0.0097,0.0022,-0.0039,
15.9370,0.0749,0.0347,0.0755,0.0097,0.0022,-0.0039,
15.9400,0.0749,0.0347,0.0755,0.0097,0.0022,-0.0039,
15.9410,0.0749,0.0347,0.0755,0.0097,0.0022,-0.0039,
15.9420,0.0749,0.0347,0.0755,0.0097,0.0022,-0.0039,
15.9430,0.0749,0.0347,0.0755,-0.0074,-0.0033,-0.0057,
15.9440,0.0069,0.0706,0.1385,-0.0074,-0.0033,-0.0057,
15.9760,0.0069,0.0706,0.1385,-0.0110,0.0065,-0.0119,
16.0150,0.0069,0.0706,0.1385,-0.0110,0.0065,-0.0119,
16.0180,0.0069,0.0706,0.1385,-0.0110,0.0065,-0.0119,
16.0190,0.0069,0.0706,0.1385,-0.0110,0.0065,-0.0119,
16.0200,0.0069,0.0706,0.1385,-0.0110,0.0065,-0.0119,
16.0210,0.0069,0.0706,0.1385,-0.0281,0.0254,-0.0222,
16.0220,-0.0098,0.0082,0.0145,-0.0281,0.0254,-0.0222,
16.0540,-0.0098,0.0082,0.0145,-0.0202,0.0077,-0.0173,
16.0550,-0.0301,-0.0521,-0.0299,-0.0202,0.0077,-0.0173,
16.0940,-0.0301,-0.0521,-0.0299,-0.0202,0.0077,-0.0173,
16.0960,-0.0301,-0.0521,-0.0299,-0.0202,0.0077,-0.0173,
16.0970,-0.0301,-0.0521,-0.0299,-0.0202,0.0077,-0.0173,
16.0980,-0.0301,-0.0521,-0.0299,-0.0202,0.0077,-0.0173,
16.0990,-0.0301,-0.0521,-0.0299,-0.0006,0.0065,-0.0180,
16.1330,-0.0301,-0.0521,-0.0299,0.0079,0.0156,-0.0222,
16.1340,-0.0601,0.0014,-0.0683,0.0079,0.0156,-0.0222,
16.1710,-0.0601,0.0014,-0.0683,0.0079,0.0156,-0.0222,
16.1720,-0.0601,0.0014,-0.0683,0.0079,0.0156,-0.0222,
16.1730,-0.0601,0.0014,-0.0683,0.0079,0.0156,-0.0222,
16.1730,-0.0601,0.0014,-0.0683,0.0079,0.0156,-0.0222,
16.1740,-0.0601,0.0014,-0.0683,0.0049,-0.0021,-0.0241,
16.1740,-0.0941,-0.0140,-0.0244,0.0049,-0.0021,-0.0241,
16.2110,-0.0941,-0.0140,-0.0244,0.0079,-0.0198,-0.0235,
16.2500,-0.0941,-0.0140,-0.0244,0.0079,-0.0198,-0.0235,
16.2520,-0.0941,-0.0140,-0.0244,0.0079,-0.0198,-0.0235,
16.2530,-0.0941,-0.0140,-0.0244,0.0079,-0.0198,-0.0235,
16.2540,-0.0941,-0.0140,-0.0244,0.0079,-0.0198,-0.0235,
16.2550,-0.0941,-0.0140,-0.0244,0.0018,-0.0332,-0.0204,
16.2570,-0.0607,0.0402,0.0279,0.0018,-0.0332,-0.0204,
16.2890,-0.0607,0.0402,0.0279,-0.0006,-0.0314,-0.0161,
16.2910,0.0245,-0.0077,-0.0150,-0.0006,-0.0314,-0.0161,
16.3270,0.0245,-0.0077,-0.0150,-0.0006,-0.0314,-0.0161,
16.3290,0.0245,-0.0077,-0.0150,-0.0006,-0.0314,-0.0161,
16.3290,0.0245,-0.0077,-0.0150,-0.0006,-0.0314,-0.0161,
16.3300,0.0245,-0.0077,-0.0150,-0.0006,-0.0314,-0.0161,
16.3300,0.0245,-0.0077,-0.0150,0.0036,-0.0394,-0.0119,
16.3670,0.0245,-0.0077,-0.0150,0.0079,-0.0351,-0.0204,
16.3690,0.0000,0.0068,-0.0647,0.0079,-0.0351,-0.0204,
16.4050,0.0000,0.0068,-0.0647,0.0079,-0.0351,-0.0204,
16.4060,0.0000,0.0068,-0.0647,0.0079,-0.0351,-0.0204,
16.4070,0.0000,0.0068,-0.0647,0.0079,-0.0351,-0.0204,
16.4070,0.0000,0.0068,-0.0647,0.0079,-0.0351,-0.0204,
16.4080,0.0000,0.0068,-0.0647,-0.0061,-0.0375,-0.0155,
16.4080,0.0258,0.0199,-0.0337,-0.0061,-0.0375,-0.0155,
16.4450,0.0258,0.0199,-0.0337,-0.0110,-0.0314,-0.0082,
16.4840,0.0258,0.0199,-0.0337,-0.0110,-0.0314,-0.0082,
16.4860,0.0258,0.0199,-0.0337,-0.0110,-0.0314,-0.0082,
16.4870,0.0258,0.0199,-0.0337,-0.0110,-0.0314,-0.0082,
16.4880,0.0258,0.0199,-0.0337,-0.0110,-0.0314,-0.0082,
16.4900,0.0258,0.0199,-0.0337,-0.0171,-0.0332,0.0010,
16.4910,-0.0379,0.0471,-0.0136,-0.0171,-0.0332,0.0010,
16.5230,-0.0379,0.0471,-0.0136,-0.0196,-0.0284,0.0095,
16.5250,-0.0261,0.0097,-0.0002,-0.0196,-0.0284,0.0095,
16.5630,-0.0261,0.0097,-0.0002,-0.0196,-0.0284,0.0095,
16.5660,-0.0261,0.0097,-0.0002,-0.0196,-0.0284,0.0095,
16.5670,-0.0261,0.0097,-0.0002,-0.0196,-0.0284,0.0095,
16.5680,-0.0261,0.0097,-0.0002,-0.0196,-0.0284,0.0095,
16.5690,-0.0261,0.0097,-0.0002,-0.0214,-0.0186,0.0138,
16.6010,-0.0261,0.0097,-0.0002,-0.0159,0.0028,0.0150,
16.6020,0.0470,-0.0109,0.0632,-0.0159,0.0028,0.0150,
16.6400,0.0470,-0.0109,0.0632,-0.0159,0.0028,0.0150,
16.6420,0.0470,-0.0109,0.0632,-0.0159,0.0028,0.0150,
16.6430,0.0470,-0.0109,0.0632,-0.0159,0.0028,0.0150,
16.6440,0.0470,-0.0109,0.0632,-0.0159,0.0028,0.0150,
16.6450,0.0470,-0.0109,0.0632,-0.0147,0.0077,0.0193,
16.6460,0.0197,0.0132,0.0696,-0.0147,0.0077,0.0193,
16.6790,0.0197,0.0132,0.0696,-0.0171,0.0046,0.0217,
16.7180,0.0197,0.0132,0.0696,-0.0171,0.0046,0.0217,
16.7200,0.0197,0.0132,0.0696,-0.0171,0.0046,0.0217,
16.7210,0.0197,0.0132,0.0696,-0.0171,0.0046,0.0217,
16.7230,0.0197,0.0132,0.0696,-0.0171,0.0046,0.0217,
16.7240,0.0197,0.0132,0.0696,-0.0110,0.0223,0.0126,
16.7250,-0.0303,-0.0437,0.0780,-0.0110,0.0223,0.0126,
16.7580,-0.0303,-0.0437,0.0780,0.0006,0.0174,0.0071,
16.7600,-0.0563,-0.0228,-0.0174,0.0006,0.0174,0.0071,
16.7960,-0.0563,-0.0228,-0.0174,0.0006,0.0174,0.0071,
16.7980,-0.0563,-0.0228,-0.0174,0.0006,0.0174,0.0071,
16.7980,-0.0563,-0.0228,-0.0174,0.0006,0.0174,0.0071,
16.7990,-0.0563,-0.0228,-0.0174,0.0006,0.0174,0.0071,
16.8000,-0.0563,-0.0228,-0.0174,0.0024,0.0046,0.0053,
16.8350,-0.0563,-0.0228,-0.0174,0.0055,0.0095,0.0004,
16.8360,-0.0461,-0.0103,0.0295,0.0055,0.0095,0.0004,
16.8750,-0.0461,-0.0103,0.0295,0.0055,0.0095,0.0004,
16.8770,-0.0461,-0.0103,0.0295,0.0055,0.0095,0.0004,
16.8780,-0.0461,-0.0103,0.0295,0.0055,0.0095,0.0004,
16.8790,-0.0461,-0.0103,0.0295,0.0055,0.0095,0.0004,
16.8800,-0.0461,-0.0103,0.0295,0.0043,-0.0009,-0.0015,
16.8810,-0.0949,0.0130,-0.0013,0.0043,-0.0009,-0.0015,
16.9130,-0.0949,0.0130,-0.0013,0.0055,-0.0155,-0.0039,
16.9530,-0.0949,0.0130,-0.0013,0.0055,-0.0155,-0.0039,
16.9550,-0.0949,0.0130,-0.0013,0.0055,-0.0155,-0.0039,
16.9560,-0.0949,0.0130,-0.0013,0.0055,-0.0155,-0.0039,
16.9570,-0.0949,0.0130,-0.0013,0.0055,-0.0155,-0.0039,
16.9590,-0.0949,0.0130,-0.0013,0.0061,-0.0369,0.0004,
16.9590,-0.0293,-0.0166,-0.0363,0.0061,-0.0369,0.0004,
16.9910,-0.0293,-0.0166,-0.0363,0.0110,-0.0314,0.0034,
16.9930,0.0644,-0.0082,-0.0274,0.0110,-0.0314,0.0034,
17.0310,0.0644,-0.0082,-0.0274,0.0110,-0.0314,0.0034,
17.0330,0.0644,-0.0082,-0.0274,0.0110,-0.0314,0.0034,
17.0340,0.0644,-0.0082,-0.0274,0.0110,-0.0314,0.0034,
17.0350,0.0644,-0.0082,-0.0274,0.0110,-0.0314,0.0034,
17.0360,0.0644,-0.0082,-0.0274,0.0079,-0.0259,-0.0009,
17.0700,0.0333,-0.0026,-0.0400,0.0079,-0.0259,-0.0009,
17.0720,0.0333,-0.0026,-0.0400,0.0116,-0.0223,-0.0063,
17.1100,0.0333,-0.0026,-0.0400,0.0116,-0.0223,-0.0063,
17.1120,0.0333,-0.0026,-0.0400,0.0116,-0.0223,-0.0063,
17.1130,0.0333,-0.0026,-0.0400,0.0116,-0.0223,-0.0063,
17.1140,0.0333,-0.0026,-0.0400,0.0116,-0.0223,-0.0063,
17.1150,0.0333,-0.0026,-0.0400,0.0128,-0.0278,-0.0002,
17.1170,0.0569,0.0263,-0.0199,0.0128,-0.0278,-0.0002,
17.1480,0.0569,0.0263,-0.0199,0.0091,-0.0223,0.0053,
17.1870,0.0569,0.0263,-0.0199,0.0091,-0.0223,0.0053,
17.1900,0.0569,0.0263,-0.0199,0.0091,-0.0223,0.0053,
17.1910,0.0569,0.0263,-0.0199,0.0091,-0.0223,0.0053,
17.1920,0.0569,0.0263,-0.0199,0.0091,-0.0223,0.0053,
17.1930,0.0569,0.0263,-0.0199,0.0030,-0.0210,0.0040,
17.1940,0.0221,0.0403,-0.0416,0.0030,-0.0210,0.0040,
17.2260,0.0221,0.0403,-0.0416,0.0018,-0.0259,0.0083,
17.2280,0.0021,-0.0006,-0.0674,0.0018,-0.0259,0.0083,
17.2310,0.0021,-0.0006,-0.0674,0.0018,-0.0259,0.0083,
17.2330,0.0021,-0.0006,-0.0674,0.0018,-0.0259,0.0083,
17.2650,0.0021,-0.0006,-0.0674,-0.0037,-0.0247,0.0040,
17.3040,0.0021,-0.0006,-0.0674,-0.0043,-0.0155,0.0022,
17.3060,0.0021,-0.0006,-0.0674,-0.0043,-0.0155,0.0022,
17.3080,0.0021,-0.0006,-0.0674,-0.0043,-0.0155,0.0022,
17.3090,0.0021,-0.0006,-0.0674,-0.0043,-0.0155,0.0022,
17.3100,0.0021,-0.0006,-0.0674,-0.0043,-0.0155,0.0022,
17.3110,0.0270,-0.0050,-0.0326,-0.0043,-0.0155,0.0022,
17.3430,0.0270,-0.0050,-0.0326,-0.0025,-0.0216,0.0016,
17.3450,0.0060,-0.0010,-0.0059,-0.0025,-0.0216,0.0016,
17.3810,0.0060,-0.0010,-0.0059,0.0061,-0.0284,0.0059,
17.3830,0.0060,-0.0010,-0.0059,0.0061,-0.0284,0.0059,
17.3830,0.0060,-0.0010,-0.0059,0.0061,-0.0284,0.0059,
17.3840,0.0060,-0.0010,-0.0059,0.0061,-0.0284,0.0059,
17.3840,0.0060,-0.0010,-0.0059,0.0061,-0.0284,0.0059,
17.4220,0.0060,-0.0010,-0.0059,0.0079,-0.0168,-0.0021,
17.4240,-0.0092,-0.0340,-0.0310,0.0079,-0.0168,-0.0021,
17.4590,-0.0092,-0.0340,-0.0310,0.0067,-0.0174,-0.0063,
17.4610,-0.0092,-0.0340,-0.0310,0.0067,-0.0174,-0.0063,
17.4620,-0.0092,-0.0340,-0.0310,0.0067,-0.0174,-0.0063,
17.4630,-0.0092,-0.0340,-0.0310,0.0067,-0.0174,-0.0063,
17.4790,-0.0092,-0.0340,-0.0310,0.0036,-0.0265,-0.0033,
17.4810,-0.0094,-0.0022,-0.0665,0.0036,-0.0265,-0.0033,
17.5190,-0.0094,-0.0022,-0.0665,0.0036,-0.0265,-0.0033,
17.5210,-0.0094,-0.0022,-0.0665,0.0036,-0.0265,-0.0033,
17.5220,-0.0094,-0.0022,-0.0665,0.0036,-0.0265,-0.0033,
17.5240,-0.0094,-0.0022,-0.0665,0.0036,-0.0265,-0.0033,
17.5250,-0.0094,-0.0022,-0.0665,0.0043,-0.0180,-0.0057,
17.5260,0.0184,0.0061,-0.0444,0.0043,-0.0180,-0.0057,
17.5580,0.0184,0.0061,-0.0444,0.0012,-0.0131,-0.0070,
17.5970,0.0184,0.0061,-0.0444,0.0012,-0.0131,-0.0070,
17.6000,0.0184,0.0061,-0.0444,0.0012,-0.0131,-0.0070,
17.6010,0.0184,0.0061,-0.0444,0.0012,-0.0131,-0.0070,
17.6020,0.0184,0.0061,-0.0444,0.0012,-0.0131,-0.0070,
17.6040,0.0184,0.0061,-0.0444,-0.0013,-0.0113,-0.0063,
17.6050,0.0006,-0.0120,-0.0491,-0.0013,-0.0113,-0.0063,
17.6350,0.0006,-0.0120,-0.0491,-0.0006,-0.0131,-0.0002,
17.6360,0.0138,0.0319,-0.0267,-0.0006,-0.0131,-0.0002,
17.6750,0.0138,0.0319,-0.0267,-0.0006,-0.0131,-0.0002,
17.6770,0.0138,0.0319,-0.0267,-0.0006,-0.0131,-0.0002,
17.6790,0.0138,0.0319,-0.0267,-0.0006,-0.0131,-0.0002,
17.6800,0.0138,0.0319,-0.0267,-0.0006,-0.0131,-0.0002,
17.6810,0.0138,0.0319,-0.0267,-0.0043,-0.0039,-0.0045,
17.7130,0.0138,0.0319,-0.0267,-0.0055,0.0016,-0.0094,
17.7150,0.0205,-0.0176,-0.0204,-0.0055,0.0016,-0.0094,
17.7530,0.0205,-0.0176,-0.0204,-0.0055,0.0016,-0.0094,
17.7560,0.0205,-0.0176,-0.0204,-0.0055,0.0016,-0.0094,
17.7570,0.0205,-0.0176,-0.0204,-0.0055,0.0016,-0.0094,
17.7580,0.0205,-0.0176,-0.0204,-0.0055,0.0016,-0.0094,
17.7590,0.0205,-0.0176,-0.0204,-0.0025,0.0101,-0.0155,
17.7600,-0.0418,-0.0096,-0.0396,-0.0025,0.0101,-0.0155,
17.7920,-0.0418,-0.0096,-0.0396,-0.0037,-0.0021,-0.0070,
17.8280,0.0045,0.0186,0.0346,-0.0037,-0.0021,-0.0070,
17.8310,0.0045,0.0186,0.0346,-0.0037,-0.0021,-0.0070,
17.8320,0.0045,0.0186,0.0346,-0.0037,-0.0021,-0.0070,
17.8330,0.0045,0.0186,0.0346,-0.0037,-0.0021,-0.0070,
17.8500,0.0045,0.0186,0.0346,-0.0104,0.0003,-0.0070,
17.8900,0.0045,0.0186,0.0346,-0.0104,0.0003,-0.0070,
17.8910,0.0045,0.0186,0.0346,-0.0104,0.0003,-0.0070,
17.8920,0.0045,0.0186,0.0346,-0.0104,0.0003,-0.0070,
17.8930,0.0045,0.0186,0.0346,-0.0104,0.0003,-0.0070,
17.8940,0.0045,0.0186,0.0346,-0.0128,-0.0027,-0.0057,
17.8940,-0.0387,0.0398,0.0006,-0.0128,-0.0027,-0.0057,
17.9290,-0.0387,0.0398,0.0006,-0.0116,-0.0058,-0.0045,
17.9310,0.0354,-0.0215,0.0217,-0.0116,-0.0058,-0.0045,
17.9570,0.0354,-0.0215,0.0217,-0.0098,-0.0003,-0.0057,
17.9600,0.0354,-0.0215,0.0217,-0.0098,-0.0003,-0.0057,
17.9610,0.0354,-0.0215,0.0217,-0.0098,-0.0003,-0.0057,
17.9620,0.0354,-0.0215,0.0217,-0.0098,-0.0003,-0.0057,
17.9880,0.0377,0.0051,0.0097,-0.0098,-0.0003,-0.0057,
17.9900,0.0377,0.0051,0.0097,-0.0159,0.0156,-0.0137,
18.0260,0.0377,0.0051,0.0097,-0.0159,0.0156,-0.0137,
18.0280,0.0377,0.0051,0.0097,-0.0159,0.0156,-0.0137,
18.0300,0.0377,0.0051,0.0097,-0.0159,0.0156,-0.0137,
18.0310,0.0377,0.0051,0.0097,-0.0159,0.0156,-0.0137,
18.0320,0.0377,0.0051,0.0097,-0.0098,0.0071,-0.0125,
18.0650,0.0377,0.0051,0.0097,-0.0031,0.0168,-0.0094,
18.0670,0.0398,-0.0002,0.0484,-0.0031,0.0168,-0.0094,
18.1050,0.0398,-0.0002,0.0484,-0.0031,0.0168,-0.0094,
18.1070,0.0398,-0.0002,0.0484,-0.0031,0.0168,-0.0094,
18.1080,0.0398,-0.0002,0.0484,-0.0031,0.0168,-0.0094,
18.1090,0.0398,-0.0002,0.0484,-0.0031,0.0168,-0.0094,
18.1100,0.0398,-0.0002,0.0484,-0.0055,0.0339,-0.0131,
18.1110,0.0286,0.0016,0.0489,-0.0055,0.0339,-0.0131,
18.1440,0.0286,0.0016,0.0489,-0.0086,0.0315,-0.0137,
18.1840,0.0286,0.0016,0.0489,-0.0086,0.0315,-0.0137,
18.1860,0.0286,0.0016,0.0489,-0.0086,0.0315,-0.0137,
18.1880,0.0286,0.0016,0.0489,-0.0086,0.0315,-0.0137,
18.1890,0.0286,0.0016,0.0489,-0.0086,0.0315,-0.0137,
18.1900,0.0286,0.0016,0.0489,-0.0104,0.0181,-0.0131,
18.1910,-0.0443,-0.0103,0.0058,-0.0104,0.0181,-0.0131,
18.2220,-0.0443,-0.0103,0.0058,-0.0086,0.0144,-0.0125,
18.2240,-0.0361,0.0039,0.0039,-0.0086,0.0144,-0.0125,
18.2610,-0.0361,0.0039,0.0039,-0.0086,0.0144,-0.0125,
18.2630,-0.0361,0.0039,0.0039,-0.0086,0.0144,-0.0125,
18.2640,-0.0361,0.0039,0.0039,-0.0086,0.0144,-0.0125,
18.2650,-0.0361,0.0039,0.0039,-0.0086,0.0144,-0.0125,
18.2660,-0.0361,0.0039,0.0039,-0.0043,0.0077,-0.0070,
18.2990,-0.0361,0.0039,0.0039,-0.0031,0.0077,-0.0070,
18.3010,-0.0061,-0.0077,0.0274,-0.0031,0.0077,-0.0070,
18.3390,-0.0061,-0.0077,0.0274,-0.0031,0.0077,-0.0070,
18.3420,-0.0061,-0.0077,0.0274,-0.0031,0.0077,-0.0070,
18.3440,-0.0061,-0.0077,0.0274,-0.0031,0.0077,-0.0070,
18.3450,-0.0061,-0.0077,0.0274,-0.0031,0.0077,-0.0070,
18.3470,-0.0173,0.0096,0.0393,-0.0031,0.0077,-0.0070,
18.3480,-0.0173,0.0096,0.0393,-0.0025,-0.0027,-0.0033,
18.3770,-0.0173,0.0096,0.0393,-0.0025,-0.0009,-0.0027,
18.4170,-0.0173,0.0096,0.0393,-0.0025,-0.0009,-0.0027,
18.4190,-0.0173,0.0096,0.0393,-0.0025,-0.0009,-0.0027,
18.4210,-0.0173,0.0096,0.0393,-0.0025,-0.0009,-0.0027,
18.4220,-0.0173,0.0096,0.0393,-0.0025,-0.0009,-0.0027,
18.4230,-0.0173,0.0096,0.0393,-0.0013,-0.0015,-0.0039,
18.4240,0.0526,-0.0099,0.0058,-0.0013,-0.0015,-0.0039,
18.4560,0.0526,-0.0099,0.0058,0.0042,0.0058,-0.0100,
18.4570,-0.0270,-0.0311,-0.0200,0.0042,0.0058,-0.0100,
18.4950,-0.0270,-0.0311,-0.0200,0.0042,0.0058,-0.0100,
18.4980,-0.0270,-0.0311,-0.0200,0.0042,0.0058,-0.0100,
18.5000,-0.0270,-0.0311,-0.0200,0.0042,0.0058,-0.0100,
18.5010,-0.0270,-0.0311,-0.0200,0.0042,0.0058,-0.0100,
18.5020,-0.0270,-0.0311,-0.0200,0.0073,-0.0015,-0.0027,
18.5350,-0.0270,-0.0311,-0.0200,0.0042,0.0077,0.0010,
18.5370,0.0447,0.0180,0.0362,0.0042,0.0077,0.0010,
18.5730,0.0447,0.0180,0.0362,0.0042,0.0077,0.0010,
18.5740,0.0447,0.0180,0.0362,0.0042,0.0077,0.0010,
18.5750,0.0447,0.0180,0.0362,0.0042,0.0077,0.0010,
18.5790,0.0447,0.0180,0.0362,0.0042,0.0077,0.0010,
18.5790,0.0447,0.0180,0.0362,-0.0025,0.0089,0.0028,
18.5800,-0.0189,0.0095,0.0193,-0.0025,0.0089,0.0028,
18.6110,-0.0189,0.0095,0.0193,0.0012,0.0040,0.0071,
18.6470,0.0282,0.0124,0.0188,0.0012,0.0040,0.0071,
18.6500,0.0282,0.0124,0.0188,0.0012,0.0040,0.0071,
18.6510,0.0282,0.0124,0.0188,0.0012,0.0040,0.0071,
18.6520,0.0282,0.0124,0.0188,0.0012,0.0040,0.0071,
18.6710,0.0282,0.0124,0.0188,0.0024,0.0126,0.0071,
18.7110,0.0282,0.0124,0.0188,0.0024,0.0126,0.0071,
18.7150,0.0282,0.0124,0.0188,0.0024,0.0126,0.0071,
18.7180,0.0282,0.0124,0.0188,0.0024,0.0126,0.0071,
18.7190,0.0282,0.0124,0.0188,0.0024,0.0126,0.0071,
18.7200,0.0051,-0.0252,0.0033,0.0024,0.0126,0.0071,
18.7200,0.0051,-0.0252,0.0033,0.0012,0.0126,0.0004,
18.7480,0.0051,-0.0252,0.0033,0.0043,-0.0033,0.0004,
18.7490,-0.0060,-0.0024,0.0419,0.0043,-0.0033,0.0004,
18.7880,-0.0060,-0.0024,0.0419,0.0104,-0.0033,-0.0021,
18.7900,-0.0060,-0.0024,0.0419,0.0104,-0.0033,-0.0021,
18.7910,-0.0060,-0.0024,0.0419,0.0104,-0.0033,-0.0021,
18.7920,-0.0060,-0.0024,0.0419,0.0104,-0.0033,-0.0021,
18.7940,-0.0060,-0.0024,0.0419,0.0104,-0.0033,-0.0021,
18.8260,-0.0060,-0.0024,0.0419,0.0097,0.0022,-0.0057,
18.8270,0.0085,0.0111,0.0121,0.0097,0.0022,-0.0057,
18.8660,0.0085,0.0111,0.0121,0.0097,0.0022,-0.0057,
18.8680,0.0085,0.0111,0.0121,0.0097,0.0022,-0.0057,
18.8690,0.0085,0.0111,0.0121,0.0097,0.0022,-0.0057,
18.8700,0.0085,0.0111,0.0121,0.0097,0.0022,-0.0057,
18.8710,-0.0292,-0.0043,-0.0102,0.0097,0.0022,-0.0057,
18.8730,-0.0292,-0.0043,-0.0102,0.0122,-0.0045,-0.0076,
18.9050,-0.0292,-0.0043,-0.0102,0.0110,-0.0125,-0.0094,
18.9450,-0.0292,-0.0043,-0.0102,0.0110,-0.0125,-0.0094,
18.9470,-0.0292,-0.0043,-0.0102,0.0110,-0.0125,-0.0094,
18.9480,-0.0292,-0.0043,-0.0102,0.0110,-0.0125,-0.0094,
18.9500,-0.0292,-0.0043,-0.0102,0.0110,-0.0125,-0.0094,
18.9510,-0.0292,-0.0043,-0.0102,0.0073,-0.0113,-0.0106,
18.9520,0.0107,0.0017,0.0016,0.0073,-0.0113,-0.0106,
18.9830,0.0107,0.0017,0.0016,0.0085,-0.0131,-0.0088,
18.9850,0.0001,0.0028,0.0122,0.0085,-0.0131,-0.0088,
19.0210,0.0001,0.0028,0.0122,0.0085,-0.0131,-0.0088,
19.0220,0.0001,0.0028,0.0122,0.0085,-0.0131,-0.0088,
19.0230,0.0001,0.0028,0.0122,0.0085,-0.0131,-0.0088,
19.0230,0.0001,0.0028,0.0122,0.0085,-0.0131,-0.0088,
19.0240,0.0001,0.0028,0.0122,0.0067,-0.0082,-0.0082,
19.0610,0.0001,0.0028,0.0122,0.0042,-0.0131,-0.0063,
19.0630,-0.0252,0.0036,-0.0085,0.0042,-0.0131,-0.0063,
19.1000,-0.0252,0.0036,-0.0085,0.0042,-0.0131,-0.0063,
19.1020,-0.0252,0.0036,-0.0085,0.0042,-0.0131,-0.0063,
19.1030,-0.0252,0.0036,-0.0085,0.0042,-0.0131,-0.0063,
19.1040,-0.0252,0.0036,-0.0085,0.0042,-0.0131,-0.0063,
19.1050,-0.0252,0.0036,-0.0085,0.0061,-0.0247,-0.0021,
19.1060,0.0091,-0.0141,-0.0128,0.0061,-0.0247,-0.0021,
19.1390,0.0091,-0.0141,-0.0128,0.0146,-0.0100,-0.0057,
19.1790,0.0091,-0.0141,-0.0128,0.0146,-0.0100,-0.0057,
19.1810,0.0091,-0.0141,-0.0128,0.0146,-0.0100,-0.0057,
19.1820,0.0091,-0.0141,-0.0128,0.0146,-0.0100,-0.0057,
19.1830,0.0091,-0.0141,-0.0128,0.0146,-0.0100,-0.0057,
19.1840,0.0091,-0.0141,-0.0128,0.0164,-0.0088,-0.0088,
19.1850,-0.0106,-0.0203,-0.0543,0.0164,-0.0088,-0.0088,
19.2160,-0.0106,-0.0203,-0.0543,0.0171,-0.0155,-0.0125,
19.2180,-0.0254,0.0211,-0.0201,0.0171,-0.0155,-0.0125,
19.2560,-0.0254,0.0211,-0.0201,0.0171,-0.0155,-0.0125,
19.2580,-0.0254,0.0211,-0.0201,0.0171,-0.0155,-0.0125,
19.2590,-0.0254,0.0211,-0.0201,0.0171,-0.0155,-0.0125,
19.2600,-0.0254,0.0211,-0.0201,0.0171,-0.0155,-0.0125,
19.2610,-0.0254,0.0211,-0.0201,0.0146,-0.0259,-0.0027,
19.2950,-0.0254,0.0211,-0.0201,0.0098,-0.0217,-0.0021,
19.2970,-0.0244,0.0191,0.0003,0.0098,-0.0217,-0.0021,
19.3350,-0.0244,0.0191,0.0003,0.0098,-0.0217,-0.0021,
19.3370,-0.0244,0.0191,0.0003,0.0098,-0.0217,-0.0021,
19.3390,-0.0244,0.0191,0.0003,0.0098,-0.0217,-0.0021,
19.3400,-0.0244,0.0191,0.0003,0.0098,-0.0217,-0.0021,
19.3410,-0.0244,0.0191,0.0003,0.0073,-0.0290,0.0034,
19.3420,-0.0261,0.0079,-0.0803,0.0073,-0.0290,0.0034,
19.3740,-0.0261,0.0079,-0.0803,0.0055,-0.0296,0.0034,
19.4130,-0.0261,0.0079,-0.0803,0.0055,-0.0296,0.0034,
19.4150,-0.0261,0.0079,-0.0803,0.0055,-0.0296,0.0034,
19.4160,-0.0261,0.0079,-0.0803,0.0055,-0.0296,0.0034,
19.4170,-0.0261,0.0079,-0.0803,0.0055,-0.0296,0.0034,
19.4180,-0.0261,0.0079,-0.0803,-0.0018,-0.0290,-0.0002,
19.4200,0.0047,0.0076,-0.0456,-0.0018,-0.0290,-0.0002,
19.4510,0.0047,0.0076,-0.0456,-0.0074,-0.0394,0.0010,
19.4520,0.0190,0.0094,0.0170,-0.0074,-0.0394,0.0010,
19.4910,0.0190,0.0094,0.0170,-0.0074,-0.0394,0.0010,
19.4930,0.0190,0.0094,0.0170,-0.0074,-0.0394,0.0010,
19.4940,0.0190,0.0094,0.0170,-0.0074,-0.0394,0.0010,
19.4960,0.0190,0.0094,0.0170,-0.0074,-0.0394,0.0010,
19.4970,0.0190,0.0094,0.0170,-0.0031,-0.0394,0.0059,
19.5290,0.0190,0.0094,0.0170,-0.0098,-0.0253,0.0040,
19.5310,0.0358,0.0157,-0.0084,-0.0098,-0.0253,0.0040,
19.5690,0.0358,0.0157,-0.0084,-0.0098,-0.0253,0.0040,
19.5720,0.0358,0.0157,-0.0084,-0.0098,-0.0253,0.0040,
19.5730,0.0358,0.0157,-0.0084,-0.0098,-0.0253,0.0040,
19.5750,0.0358,0.0157,-0.0084,-0.0098,-0.0253,0.0040,
19.5760,0.0358,0.0157,-0.0084,-0.0116,-0.0241,0.0040,
19.5770,-0.0082,-0.0022,-0.0336,-0.0116,-0.0241,0.0040,
19.6080,-0.0082,-0.0022,-0.0336,-0.0135,-0.0253,0.0065,
19.6470,-0.0082,-0.0022,-0.0336,-0.0135,-0.0253,0.0065,
19.6490,-0.0082,-0.0022,-0.0336,-0.0135,-0.0253,0.0065,
19.6500,-0.0082,-0.0022,-0.0336,-0.0135,-0.0253,0.0065,
19.6510,-0.0082,-0.0022,-0.0336,-0.0135,-0.0253,0.0065,
19.6520,-0.0082,-0.0022,-0.0336,-0.0141,-0.0186,0.0077,
19.6530,0.0271,0.0002,0.0079,-0.0141,-0.0186,0.0077,
19.6860,0.0271,0.0002,0.0079,-0.0086,-0.0131,0.0114,
19.6880,-0.0050,-0.0210,0.0454,-0.0086,-0.0131,0.0114,
19.7250,-0.0050,-0.0210,0.0454,-0.0086,-0.0131,0.0114,
19.7270,-0.0050,-0.0210,0.0454,-0.0086,-0.0131,0.0114,
19.7280,-0.0050,-0.0210,0.0454,-0.0086,-0.0131,0.0114,
19.7300,-0.0050,-0.0210,0.0454,-0.0086,-0.0131,0.0114,
19.7320,-0.0050,-0.0210,0.0454,-0.0031,-0.0125,0.0089,
19.7640,-0.0050,-0.0210,0.0454,-0.0037,-0.0033,0.0040,
19.7660,0.0616,0.0100,0.0187,-0.0037,-0.0033,0.0040,
19.8030,0.0616,0.0100,0.0187,-0.0037,-0.0033,0.0040,
19.8050,0.0616,0.0100,0.0187,-0.0037,-0.0033,0.0040,
19.8060,0.0616,0.0100,0.0187,-0.0037,-0.0033,0.0040,
19.8080,0.0616,0.0100,0.0187,-0.0037,-0.0033,0.0040,
19.8090,0.0616,0.0100,0.0187,-0.0061,-0.0003,-0.0009,
19.8110,0.0091,0.0045,0.0183,-0.0061,-0.0003,-0.0009,
19.8420,0.0091,0.0045,0.0183,-0.0067,-0.0003,-0.0033,
19.8820,0.0091,0.0045,0.0183,-0.0067,-0.0003,-0.0033,
19.8840,0.0091,0.0045,0.0183,-0.0067,-0.0003,-0.0033,
19.8850,0.0091,0.0045,0.0183,-0.0067,-0.0003,-0.0033,
19.8860,0.0091,0.0045,0.0183,-0.0067,-0.0003,-0.0033,
19.8870,0.0213,-0.0199,0.0109,-0.0067,-0.0003,-0.0033,
19.8880,0.0213,-0.0199,0.0109,-0.0025,0.0040,-0.0070,
19.9200,0.0213,-0.0199,0.0109,-0.0049,0.0083,-0.0137,
19.9220,-0.0409,0.0139,-0.0143,-0.0049,0.0083,-0.0137,
19.9600,-0.0409,0.0139,-0.0143,-0.0049,0.0083,-0.0137,
19.9620,-0.0409,0.0139,-0.0143,-0.0049,0.0083,-0.0137,
19.9630,-0.0409,0.0139,-0.0143,-0.0049,0.0083,-0.0137,
19.9640,-0.0409,0.0139,-0.0143,-0.0049,0.0083,-0.0137,
19.9650,-0.0409,0.0139,-0.0143,-0.0031,-0.0027,-0.0051,
19.9990,-0.0409,0.0139,-0.0143,-0.0061,-0.0076,0.0040,
20.0010,0.0086,-0.0028,0.0248,-0.0061,-0.0076,0.0040,
20.0380,0.0086,-0.0028,0.0248,-0.0061,-0.0076,0.0040,
20.0400,0.0086,-0.0028,0.0248,-0.0061,-0.0076,0.0040,
20.0410,0.0086,-0.0028,0.0248,-0.0061,-0.0076,0.0040,
20.0420,0.0086,-0.0028,0.0248,-0.0061,-0.0076,0.0040,
20.0430,0.0086,-0.0028,0.0248,-0.0110,-0.0021,0.0022,
20.0450,0.0172,0.0234,-0.0322,-0.0110,-0.0021,0.0022,
20.0770,0.0172,0.0234,-0.0322,-0.0098,-0.0003,0.0059,
20.1160,0.0172,0.0234,-0.0322,-0.0098,-0.0003,0.0059,
20.1180,0.0172,0.0234,-0.0322,-0.0098,-0.0003,0.0059,
20.1190,0.0172,0.0234,-0.0322,-0.0098,-0.0003,0.0059,
20.1210,0.0172,0.0234,-0.0322,-0.0098,-0.0003,0.0059,
20.1220,0.0172,0.0234,-0.0322,-0.0135,0.0003,0.0059,
20.1230,0.0394,-0.0096,-0.0152,-0.0135,0.0003,0.0059,
20.1550,0.0394,-0.0096,-0.0152,-0.0135,0.0034,0.0059,
20.1570,0.0238,-0.0204,-0.0025,-0.0135,0.0034,0.0059,
20.1940,0.0238,-0.0204,-0.0025,-0.0135,0.0034,0.0059,
20.1950,0.0238,-0.0204,-0.0025,-0.0135,0.0034,0.0059,
20.1950,0.0238,-0.0204,-0.0025,-0.0135,0.0034,0.0059,
20.1960,0.0238,-0.0204,-0.0025,-0.0135,0.0034,0.0059,
20.1960,0.0238,-0.0204,-0.0025,-0.0061,0.0034,0.0077,
20.2330,0.0238,-0.0204,-0.0025,0.0024,0.0211,0.0089,
20.2350,0.0136,-0.0029,0.0115,0.0024,0.0211,0.0089,
20.2720,0.0136,-0.0029,0.0115,0.0024,0.0211,0.0089,
20.2740,0.0136,-0.0029,0.0115,0.0024,0.0211,0.0089,
20.2750,0.0136,-0.0029,0.0115,0.0024,0.0211,0.0089,
20.2770,0.0136,-0.0029,0.0115,0.0024,0.0211,0.0089,
20.2780,-0.0467,-0.0091,0.0050,0.0024,0.0211,0.0089,
20.2790,-0.0467,-0.0091,0.0050,0.0012,0.0266,0.0052,
20.3100,-0.0467,-0.0091,0.0050,0.0024,0.0156,0.0059,
20.3500,-0.0467,-0.0091,0.0050,0.0024,0.0156,0.0059,
20.3520,-0.0467,-0.0091,0.0050,0.0024,0.0156,0.0059,
20.3540,-0.0467,-0.0091,0.0050,0.0024,0.0156,0.0059,
20.3550,-0.0467,-0.0091,0.0050,0.0024,0.0156,0.0059,
20.3560,-0.0467,-0.0091,0.0050,-0.0031,0.0052,0.0065,
20.3570,-0.0370,-0.0056,0.0034,-0.0031,0.0052,0.0065,
20.3890,-0.0370,-0.0056,0.0034,-0.0025,-0.0039,0.0071,
20.3920,-0.0233,-0.0003,0.0278,-0.0025,-0.0039,0.0071,
20.4270,-0.0233,-0.0003,0.0278,-0.0025,-0.0039,0.0071,
20.4280,-0.0233,-0.0003,0.0278,-0.0025,-0.0039,0.0071,
20.4290,-0.0233,-0.0003,0.0278,-0.0025,-0.0039,0.0071,
20.4290,-0.0233,-0.0003,0.0278,-0.0025,-0.0039,0.0071,
20.4300,-0.0233,-0.0003,0.0278,0.0030,-0.0076,0.0101,
20.4670,-0.0233,-0.0003,0.0278,0.0036,-0.0161,0.0108,
20.4690,0.0003,-0.0092,0.0112,0.0036,-0.0161,0.0108,
20.5070,0.0003,-0.0092,0.0112,0.0036,-0.0161,0.0108,
20.5090,0.0003,-0.0092,0.0112,0.0036,-0.0161,0.0108,
20.5100,0.0003,-0.0092,0.0112,0.0036,-0.0161,0.0108,
20.5110,0.0003,-0.0092,0.0112,0.0036,-0.0161,0.0108,
20.5130,0.0003,-0.0092,0.0112,-0.0006,-0.0186,0.0052,
20.5140,0.0121,0.0030,0.0145,-0.0006,-0.0186,0.0052,
20.5450,0.0121,0.0030,0.0145,0.0012,-0.0223,0.0065,
20.5840,0.0121,0.0030,0.0145,0.0012,-0.0223,0.0065,
20.5860,0.0121,0.0030,0.0145,0.0012,-0.0223,0.0065,
20.5870,0.0121,0.0030,0.0145,0.0012,-0.0223,0.0065,
20.5890,0.0121,0.0030,0.0145,0.0012,-0.0223,0.0065,
20.5900,0.0121,0.0030,0.0145,0.0085,-0.0284,0.0101,
20.5910,0.0019,-0.0174,0.0018,0.0085,-0.0284,0.0101,
20.6240,0.0019,-0.0174,0.0018,0.0110,-0.0217,0.0046,
20.6250,0.0409,-0.0202,-0.0240,0.0110,-0.0217,0.0046,
20.6620,0.0409,-0.0202,-0.0240,0.0110,-0.0217,0.0046,
20.6640,0.0409,-0.0202,-0.0240,0.0110,-0.0217,0.0046,
20.6660,0.0409,-0.0202,-0.0240,0.0110,-0.0217,0.0046,
20.6670,0.0409,-0.0202,-0.0240,0.0110,-0.0217,0.0046,
20.6680,0.0409,-0.0202,-0.0240,0.0097,-0.0015,-0.0088,
20.7010,-0.0091,-0.0062,-0.0218,0.0097,-0.0015,-0.0088,
20.7030,-0.0091,-0.0062,-0.0218,0.0116,-0.0100,-0.0009,
20.7400,-0.0091,-0.0062,-0.0218,0.0116,-0.0100,-0.0009,
20.7420,-0.0091,-0.0062,-0.0218,0.0116,-0.0100,-0.0009,
20.7430,-0.0091,-0.0062,-0.0218,0.0116,-0.0100,-0.0009,
20.7450,-0.0091,-0.0062,-0.0218,0.0116,-0.0100,-0.0009,
20.7460,0.0085,0.0131,-0.0148,0.0116,-0.0100,-0.0009,
20.7470,0.0085,0.0131,-0.0148,0.0079,-0.0125,0.0010,
20.7790,0.0085,0.0131,-0.0148,0.0049,-0.0027,0.0016,
20.8190,0.0085,0.0131,-0.0148,0.0049,-0.0027,0.0016,
20.8220,0.0085,0.0131,-0.0148,0.0049,-0.0027,0.0016,
20.8230,0.0085,0.0131,-0.0148,0.0049,-0.0027,0.0016,
20.8250,0.0085,0.0131,-0.0148,0.0049,-0.0027,0.0016,
20.8260,0.0094,0.0089,-0.0449,0.0049,-0.0027,0.0016,
20.8280,0.0094,0.0089,-0.0449,0.0049,-0.0045,0.0004,
20.8570,0.0094,0.0089,-0.0449,0.0036,0.0009,-0.0002,
20.8580,0.0230,0.0045,0.0032,0.0036,0.0009,-0.0002,
20.8970,0.0230,0.0045,0.0032,0.0036,0.0009,-0.0002,
20.9000,0.0230,0.0045,0.0032,0.0036,0.0009,-0.0002,
20.9010,0.0230,0.0045,0.0032,0.0036,0.0009,-0.0002,
20.9020,0.0230,0.0045,0.0032,0.0036,0.0009,-0.0002,
20.9030,0.0230,0.0045,0.0032,-0.0013,0.0089,-0.0063,
20.9360,0.0230,0.0045,0.0032,0.0030,0.0016,-0.0045,
20.9380,0.0023,0.0050,0.0214,0.0030,0.0016,-0.0045,
20.9750,0.0023,0.0050,0.0214,0.0030,0.0016,-0.0045,
20.9770,0.0023,0.0050,0.0214,0.0030,0.0016,-0.0045,
20.9790,0.0023,0.0050,0.0214,0.0030,0.0016,-0.0045,
20.9800,0.0023,0.0050,0.0214,0.0030,0.0016,-0.0045,
20.9810,0.0023,0.0050,0.0214,0.0049,0.0089,-0.0033,
20.9820,-0.0082,0.0047,-0.0018,0.0049,0.0089,-0.0033,
21.0140,-0.0082,0.0047,-0.0018,0.0024,0.0126,-0.0063,
21.0510,-0.0082,0.0047,-0.0018,-0.0006,0.0107,-0.0070,
21.0520,-0.0296,0.0023,-0.0280,-0.0006,0.0107,-0.0070,
21.0530,-0.0296,0.0023,-0.0280,-0.0006,0.0107,-0.0070,
21.0530,-0.0296,0.0023,-0.0280,-0.0006,0.0107,-0.0070,
21.0540,-0.0296,0.0023,-0.0280,-0.0006,0.0107,-0.0070,
21.0720,-0.0296,0.0023,-0.0280,-0.0037,0.0034,-0.0039,
21.1100,-0.0296,0.0023,-0.0280,-0.0037,0.0034,-0.0039,
21.1110,-0.0296,0.0023,-0.0280,-0.0037,0.0034,-0.0039,
21.1120,-0.0296,0.0023,-0.0280,-0.0037,0.0034,-0.0039,
21.1130,-0.0296,0.0023,-0.0280,-0.0037,0.0034,-0.0039,
21.1130,-0.0296,0.0023,-0.0280,-0.0037,0.0016,-0.0015,
21.1140,-0.0353,0.0170,-0.0026,-0.0037,0.0016,-0.0015,
21.1500,-0.0353,0.0170,-0.0026,-0.0018,0.0022,0.0028,
21.1520,-0.0223,-0.0049,-0.0084,-0.0018,0.0022,0.0028,
21.1890,-0.0223,-0.0049,-0.0084,-0.0018,0.0022,0.0028,
21.1910,-0.0223,-0.0049,-0.0084,-0.0018,0.0022,0.0028,
21.1930,-0.0223,-0.0049,-0.0084,-0.0018,0.0022,0.0028,
21.1940,-0.0223,-0.0049,-0.0084,-0.0018,0.0022,0.0028,
21.1950,-0.0223,-0.0049,-0.0084,-0.0025,0.0003,0.0022,
21.2290,-0.0223,-0.0049,-0.0084,-0.0025,0.0028,-0.0002,
21.2320,0.0022,-0.0059,-0.0194,-0.0025,0.0028,-0.0002,
21.2670,0.0022,-0.0059,-0.0194,-0.0025,0.0028,-0.0002,
21.2690,0.0022,-0.0059,-0.0194,-0.0025,0.0028,-0.0002,
21.2700,0.0022,-0.0059,-0.0194,-0.0025,0.0028,-0.0002,
21.2700,0.0022,-0.0059,-0.0194,-0.0025,0.0028,-0.0002,
21.2710,0.0022,-0.0059,-0.0194,0.0042,-0.0155,0.0028,
21.2710,-0.0449,0.0068,-0.0002,0.0042,-0.0155,0.0028,
21.3060,-0.0449,0.0068,-0.0002,0.0110,-0.0693,0.0071,
21.3450,-0.0449,0.0068,-0.0002,0.0110,-0.0693,0.0071,
21.3470,-0.0449,0.0068,-0.0002,0.0110,-0.0693,0.0071,
21.3490,-0.0449,0.0068,-0.0002,0.0110,-0.0693,0.0071,
21.3510,-0.0449,0.0068,-0.0002,0.0110,-0.0693,0.0071,
21.3520,-0.0449,0.0068,-0.0002,0.0458,-0.0827,-0.0057,
21.3530,-0.0470,-0.0851,-0.0461,0.0458,-0.0827,-0.0057,
21.3850,-0.0470,-0.0851,-0.0461,0.1001,0.0608,-0.0509,
21.3870,0.1270,-0.0460,0.0501,0.1001,0.0608,-0.0509,
21.4230,0.1270,-0.0460,0.0501,0.1001,0.0608,-0.0509,
21.4240,0.1270,-0.0460,0.0501,0.1001,0.0608,-0.0509,
21.4250,0.1270,-0.0460,0.0501,0.1001,0.0608,-0.0509,
21.4250,0.1270,-0.0460,0.0501,0.1001,0.0608,-0.0509,
21.4250,0.1270,-0.0460,0.0501,0.1515,0.2392,-0.0809,
21.4630,0.1821,-0.1323,0.0617,0.1515,0.2392,-0.0809,
21.4650,0.1821,-0.1323,0.0617,0.1796,0.4787,-0.0717,
21.5010,0.1821,-0.1323,0.0617,0.1796,0.4787,-0.0717,
21.5020,0.1821,-0.1323,0.0617,0.1796,0.4787,-0.0717,
21.5020,0.1821,-0.1323,0.0617,0.1796,0.4787,-0.0717,
21.5020,0.1821,-0.1323,0.0617,0.1796,0.4787,-0.0717,
21.5030,0.1821,-0.1323,0.0617,0.1747,0.8006,-0.0925,
21.5040,0.7263,-0.1452,0.0299,0.1747,0.8006,-0.0925,
21.5400,0.7263,-0.1452,0.0299,0.1985,1.1188,-0.0949,
21.5790,0.7263,-0.1452,0.0299,0.1985,1.1188,-0.0949,
21.5800,0.7263,-0.1452,0.0299,0.1985,1.1188,-0.0949,
21.5810,0.7263,-0.1452,0.0299,0.1985,1.1188,-0.0949,
21.5810,0.7263,-0.1452,0.0299,0.1985,1.1188,-0.0949,
21.5810,0.7263,-0.1452,0.0299,0.3677,1.4456,-0.0406,
21.5820,1.5411,-0.4280,-0.1614,0.3677,1.4456,-0.0406,
21.6180,1.5411,-0.4280,-0.1614,0.4929,1.7828,-0.0894,
21.6200,1.8647,-0.4167,-0.5260,0.4929,1.7828,-0.0894,
21.6580,1.8647,-0.4167,-0.5260,0.4929,1.7828,-0.0894,
21.6600,1.8647,-0.4167,-0.5260,0.4929,1.7828,-0.0894,
21.6610,1.8647,-0.4167,-0.5260,0.4929,1.7828,-0.0894,
21.6620,1.8647,-0.4167,-0.5260,0.4929,1.7828,-0.0894,
21.6630,1.8647,-0.4167,-0.5260,0.3152,1.8109,-0.2391,
21.6960,1.8647,-0.4167,-0.5260,0.0415,1.6002,-0.3545,
21.6980,0.2951,0.9317,-0.3995,0.0415,1.6002,-0.3545,
21.7350,0.2951,0.9317,-0.3995,0.0415,1.6002,-0.3545,
21.7360,0.2951,0.9317,-0.3995,0.0415,1.6002,-0.3545,
21.7370,0.2951,0.9317,-0.3995,0.0415,1.6002,-0.3545,
21.7370,0.2951,0.9317,-0.3995,0.0415,1.6002,-0.3545,
21.7380,0.2951,0.9317,-0.3995,0.0336,1.6814,-0.3875,
21.7390,1.1652,0.0700,0.2269,0.0336,1.6814,-0.3875,
21.7750,1.1652,0.0700,0.2269,0.0739,2.0101,-0.4223,
21.7860,1.1652,0.0700,0.2269,0.0739,2.0101,-0.4223,
21.7880,1.1652,0.0700,0.2269,0.0739,2.0101,-0.4223,
21.8140,1.1652,0.0700,0.2269,0.0965,2.3418,-0.4181,
21.8170,2.7050,-0.0973,0.0554,0.0965,2.3418,-0.4181,
21.8530,2.7050,-0.0973,0.0554,-0.1485,2.4780,-0.5286,
21.8560,2.7050,-0.0973,0.0554,-0.1485,2.4780,-0.5286,
21.8570,2.7050,-0.0973,0.0554,-0.1485,2.4780,-0.5286,
21.8580,2.7050,-0.0973,0.0554,-0.1485,2.4780,-0.5286,
21.8600,2.7050,-0.0973,0.0554,-0.1485,2.4780,-0.5286,
21.8610,1.3918,0.8524,-0.9854,-0.1485,2.4780,-0.5286,
21.8920,1.3918,0.8524,-0.9854,-0.3769,2.3968,-0.6215,
21.9300,1.3918,0.8524,-0.9854,-0.3348,2.1494,-0.5427,
21.9320,1.3918,0.8524,-0.9854,-0.3348,2.1494,-0.5427,
21.9320,1.3918,0.8524,-0.9854,-0.3348,2.1494,-0.5427,
21.9330,1.3918,0.8524,-0.9854,-0.3348,2.1494,-0.5427,
21.9330,1.3918,0.8524,-0.9854,-0.3348,2.1494,-0.5427,
21.9340,-0.4604,0.2147,-0.7930,-0.3348,2.1494,-0.5427,
21.9710,-0.4604,0.2147,-0.7930,-0.1955,2.0076,-0.3826,
21.9730,-1.1314,-0.1971,-0.8869,-0.1955,2.0076,-0.3826,
22.0100,-1.1314,-0.1971,-0.8869,0.0360,2.3748,-0.2635,
22.0120,-1.1314,-0.1971,-0.8869,0.0360,2.3748,-0.2635,
22.0130,-1.1314,-0.1971,-0.8869,0.0360,2.3748,-0.2635,
22.0140,-1.1314,-0.1971,-0.8869,0.0360,2.3748,-0.2635,
22.0150,-1.1314,-0.1971,-0.8869,0.0360,2.3748,-0.2635,
22.0490,-1.1314,-0.1971,-0.8869,-0.1430,2.6374,-0.3210,
22.0510,1.0307,0.0706,-2.3854,-0.1430,2.6374,-0.3210,
22.0880,1.0307,0.0706,-2.3854,-0.0684,2.8109,-0.4621,
22.0910,1.0307,0.0706,-2.3854,-0.0684,2.8109,-0.4621,
22.0920,1.0307,0.0706,-2.3854,-0.0684,2.8109,-0.4621,
22.0930,1.0307,0.0706,-2.3854,-0.0684,2.8109,-0.4621,
22.0940,1.0307,0.0706,-2.3854,-0.0684,2.8109,-0.4621,
22.0950,-1.7162,-0.2350,-0.8230,-0.0684,2.8109,-0.4621,
22.1260,-1.7162,-0.2350,-0.8230,0.0134,2.9716,-0.5494,
22.1650,-1.7162,-0.2350,-0.8230,-0.0165,2.9820,-0.4596,
22.1670,-1.7162,-0.2350,-0.8230,-0.0165,2.9820,-0.4596,
22.1690,-1.7162,-0.2350,-0.8230,-0.0165,2.9820,-0.4596,
22.1700,-1.7162,-0.2350,-0.8230,-0.0165,2.9820,-0.4596,
22.1710,-1.7162,-0.2350,-0.8230,-0.0165,2.9820,-0.4596,
22.1720,-1.0190,0.1621,-1.3181,-0.0165,2.9820,-0.4596,
22.2050,-1.3280,-1.1933,-0.9928,-0.0165,2.9820,-0.4596,
22.2080,-1.3280,-1.1933,-0.9928,0.0354,2.9649,-0.4743,
22.2350,-1.3280,-1.1933,-0.9928,0.0354,2.9649,-0.4743,
22.2370,-1.3280,-1.1933,-0.9928,0.0354,2.9649,-0.4743,
22.2380,-1.3280,-1.1933,-0.9928,0.0354,2.9649,-0.4743,
22.2630,-1.3280,-1.1933,-0.9928,0.0879,2.8317,-0.4547,
22.2660,-1.7590,-0.5355,-1.4188,0.0879,2.8317,-0.4547,
22.3020,-1.7590,-0.5355,-1.4188,0.0879,2.8317,-0.4547,
22.3050,-1.7590,-0.5355,-1.4188,0.0879,2.8317,-0.4547,
22.3060,-1.7590,-0.5355,-1.4188,0.0879,2.8317,-0.4547,
22.3070,-1.7590,-0.5355,-1.4188,0.0879,2.8317,-0.4547,
22.3080,-1.7590,-0.5355,-1.4188,-0.0275,2.6191,-0.4755,
22.3410,-1.7590,-0.5355,-1.4188,-0.1191,2.4969,-0.4871,
22.3440,-2.1911,0.0056,-1.1500,-0.1191,2.4969,-0.4871,
22.3800,-2.1911,0.0056,-1.1500,-0.1191,2.4969,-0.4871,
22.3820,-2.1911,0.0056,-1.1500,-0.1191,2.4969,-0.4871,
22.3830,-2.1911,0.0056,-1.1500,-0.1191,2.4969,-0.4871,
22.3840,-2.1911,0.0056,-1.1500,-0.1191,2.4969,-0.4871,
22.3860,-2.1911,0.0056,-1.1500,-0.2376,2.5708,-0.4578,
22.3880,-1.1392,-0.5473,-0.9107,-0.2376,2.5708,-0.4578,
22.4190,-1.1392,-0.5473,-0.9107,-0.4600,2.6729,-0.4193,
22.4530,-1.1392,-0.5473,-0.9107,-0.3299,2.8311,-0.4126,
22.4560,-1.5756,-0.9450,-0.2051,-0.3299,2.8311,-0.4126,
22.4580,-1.5756,-0.9450,-0.2051,-0.3299,2.8311,-0.4126,
22.4590,-1.5756,-0.9450,-0.2051,-0.3299,2.8311,-0.4126,
22.4610,-1.5756,-0.9450,-0.2051,-0.3299,2.8311,-0.4126,
22.4780,-1.5756,-0.9450,-0.2051,0.1447,2.6924,-0.5500,
22.5160,-1.5756,-0.9450,-0.2051,0.1447,2.6924,-0.5500,
22.5180,-1.5756,-0.9450,-0.2051,0.1447,2.6924,-0.5500,
22.5190,-1.5756,-0.9450,-0.2051,0.1447,2.6924,-0.5500,
22.5200,-1.5756,-0.9450,-0.2051,0.1447,2.6924,-0.5500,
22.5210,-1.5756,-0.9450,-0.2051,-0.0410,1.9960,-0.3381,
22.5230,-1.9249,0.3544,-2.0569,-0.0410,1.9960,-0.3381,
22.5560,-1.9249,0.3544,-2.0569,0.0983,2.1811,-0.3032,
22.5590,2.9919,0.9279,0.0801,0.0983,2.1811,-0.3032,
22.5950,2.9919,0.9279,0.0801,0.0983,2.1811,-0.3032,
22.5970,2.9919,0.9279,0.0801,0.0983,2.1811,-0.3032,
22.5980,2.9919,0.9279,0.0801,0.0983,2.1811,-0.3032,
22.6000,2.9919,0.9279,0.0801,0.0983,2.1811,-0.3032,
22.6010,2.9919,0.9279,0.0801,-0.2041,2.6331,-0.4541,
22.6340,2.9919,0.9279,0.0801,-0.6469,2.2899,-0.4743,
22.6350,-1.5057,1.5526,-1.0562,-0.6469,2.2899,-0.4743,
22.6730,-1.5057,1.5526,-1.0562,-0.5742,1.9655,-0.4193,
22.6760,-1.5057,1.5526,-1.0562,-0.5742,1.9655,-0.4193,
22.6770,-1.5057,1.5526,-1.0562,-0.5742,1.9655,-0.4193,
22.6780,-1.5057,1.5526,-1.0562,-0.5742,1.9655,-0.4193,
22.6800,-1.5057,1.5526,-1.0562,-0.5742,1.9655,-0.4193,
22.6810,-0.6854,-1.2392,1.0024,-0.5742,1.9655,-0.4193,
22.7120,-0.6854,-1.2392,1.0024,-0.3757,1.7254,-0.3710,
22.7490,-0.6854,-1.2392,1.0024,-0.3757,1.7254,-0.3710,
22.7510,-0.6854,-1.2392,1.0024,-0.3757,1.7254,-0.3710,
22.7520,-0.6854,-1.2392,1.0024,-0.3757,1.7254,-0.3710,
22.7530,-0.4062,-0.5726,0.1665,-0.3757,1.7254,-0.3710,
22.7710,-0.4062,-0.5726,0.1665,-0.2413,1.5134,-0.3002,
22.8100,-0.4062,-0.5726,0.1665,-0.2413,1.5134,-0.3002,
22.8120,-0.4062,-0.5726,0.1665,-0.2413,1.5134,-0.3002,
22.8130,-0.4062,-0.5726,0.1665,-0.2413,1.5134,-0.3002,
22.8140,-0.4062,-0.5726,0.1665,-0.2413,1.5134,-0.3002,
22.8150,-0.4062,-0.5726,0.1665,-0.2737,1.5440,-0.1994,
22.8170,0.7046,0.5591,-0.2811,-0.2737,1.5440,-0.1994,
22.8490,-0.2393,-0.5387,-0.1616,-0.2737,1.5440,-0.1994,
22.8520,-0.2393,-0.5387,-0.1616,-0.3348,1.5489,-0.1853,
22.8880,-0.2393,-0.5387,-0.1616,-0.3348,1.5489,-0.1853,
22.8900,-0.2393,-0.5387,-0.1616,-0.3348,1.5489,-0.1853,
22.8910,-0.2393,-0.5387,-0.1616,-0.3348,1.5489,-0.1853,
22.8920,-0.2393,-0.5387,-0.1616,-0.3348,1.5489,-0.1853,
22.8930,-0.2393,-0.5387,-0.1616,-0.2920,1.3528,-0.1688,
22.9270,-0.2393,-0.5387,-0.1616,-0.2291,1.1243,-0.1181,
22.9300,-0.7468,0.0679,0.3892,-0.2291,1.1243,-0.1181,
22.9670,-0.7468,0.0679,0.3892,-0.2291,1.1243,-0.1181,
22.9700,-0.7468,0.0679,0.3892,-0.2291,1.1243,-0.1181,
22.9710,-0.7468,0.0679,0.3892,-0.2291,1.1243,-0.1181,
22.9720,-0.7468,0.0679,0.3892,-0.2291,1.1243,-0.1181,
22.9730,-1.9008,0.1687,-1.0553,-0.2291,1.1243,-0.1181,
22.9750,-1.9008,0.1687,-1.0553,-0.1521,0.9417,-0.1047,
23.0060,-1.9008,0.1687,-1.0553,-0.2370,0.7407,-0.1181,
23.0440,-1.9008,0.1687,-1.0553,-0.2370,0.7407,-0.1181,
23.0460,-1.9008,0.1687,-1.0553,-0.2370,0.7407,-0.1181,
23.0470,-1.9008,0.1687,-1.0553,-0.2370,0.7407,-0.1181,
23.0480,-1.9008,0.1687,-1.0553,-0.2370,0.7407,-0.1181,
23.0490,-1.9008,0.1687,-1.0553,0.1087,0.2936,-0.0913,
23.0510,-3.3088,-1.9352,0.2368,0.1087,0.2936,-0.0913,
23.0830,-3.3088,-1.9352,0.2368,0.4037,0.2166,-0.0253,
23.0850,-1.4587,1.9319,-0.7334,0.4037,0.2166,-0.0253,
23.1220,-1.4587,1.9319,-0.7334,0.4037,0.2166,-0.0253,
23.1230,-1.4587,1.9319,-0.7334,0.4037,0.2166,-0.0253,
23.1240,-1.4587,1.9319,-0.7334,0.4037,0.2166,-0.0253,
23.1250,-1.4587,1.9319,-0.7334,0.4037,0.2166,-0.0253,
23.1270,-1.4587,1.9319,-0.7334,0.2266,0.3449,-0.0956,
23.1600,-1.4587,1.9319,-0.7334,0.0861,0.2032,-0.2195,
23.1610,-1.8542,-0.2035,-0.2890,0.0861,0.2032,-0.2195,
23.1990,-1.8542,-0.2035,-0.2890,0.0861,0.2032,-0.2195,
23.2000,-1.8542,-0.2035,-0.2890,0.0861,0.2032,-0.2195,
23.2010,-1.8542,-0.2035,-0.2890,0.0861,0.2032,-0.2195,
23.2020,-1.8542,-0.2035,-0.2890,0.0861,0.2032,-0.2195,
23.2030,-0.7726,-0.9703,0.4679,0.0861,0.2032,-0.2195,
23.2040,-0.7726,-0.9703,0.4679,0.1136,0.1806,-0.2055,
23.2390,-0.7726,-0.9703,0.4679,0.1160,0.2960,-0.1597,
23.2790,-1.5906,-0.0312,-0.2497,0.1160,0.2960,-0.1597,
23.2800,-1.5906,-0.0312,-0.2497,0.1160,0.2960,-0.1597,
23.2810,-1.5906,-0.0312,-0.2497,0.1160,0.2960,-0.1597,
23.2810,-1.5906,-0.0312,-0.2497,0.1160,0.2960,-0.1597,
23.2810,-1.5906,-0.0312,-0.2497,0.1160,0.2960,-0.1597,
23.2820,-1.5906,-0.0312,-0.2497,-0.0037,0.3656,-0.1621,
23.3160,-1.5906,-0.0312,-0.2497,-0.1350,0.2997,-0.1151,
23.3170,-1.6751,0.2547,-0.0562,-0.1350,0.2997,-0.1151,
23.3570,-1.6751,0.2547,-0.0562,-0.1350,0.2997,-0.1151,
23.3590,-1.6751,0.2547,-0.0562,-0.1350,0.2997,-0.1151,
23.3600,-1.6751,0.2547,-0.0562,-0.1350,0.2997,-0.1151,
23.3610,-1.6751,0.2547,-0.0562,-0.1350,0.2997,-0.1151,
23.3630,-1.6751,0.2547,-0.0562,-0.2212,0.2245,-0.0564,
23.3960,-1.6751,0.2547,-0.0562,-0.2450,0.2190,0.0163,
23.3980,-1.2369,-0.0550,0.1095,-0.2450,0.2190,0.0163,
23.4350,-1.2369,-0.0550,0.1095,-0.2450,0.2190,0.0163,
23.4370,-1.2369,-0.0550,0.1095,-0.2450,0.2190,0.0163,
23.4380,-1.2369,-0.0550,0.1095,-0.2450,0.2190,0.0163,
23.4390,-1.2369,-0.0550,0.1095,-0.2450,0.2190,0.0163,
23.4400,-1.2369,-0.0550,0.1095,-0.2224,0.2826,0.0431,
23.4420,-1.2065,0.1941,0.1495,-0.2224,0.2826,0.0431,
23.4720,-1.2065,0.1941,0.1495,-0.2395,0.2532,0.0987,
23.5130,-1.2065,0.1941,0.1495,-0.2395,0.2532,0.0987,
23.5140,-1.2065,0.1941,0.1495,-0.2395,0.2532,0.0987,
23.5150,-1.2065,0.1941,0.1495,-0.2395,0.2532,0.0987,
23.5160,-1.2065,0.1941,0.1495,-0.2395,0.2532,0.0987,
23.5170,-1.2065,0.1941,0.1495,-0.2926,0.0743,0.1036,
23.5190,-1.7583,-0.0518,-0.2061,-0.2926,0.0743,0.1036,
23.5520,-1.7583,-0.0518,-0.2061,-0.2389,-0.1059,0.0755,
23.5540,-1.5325,-0.2795,-0.2453,-0.2389,-0.1059,0.0755,
23.5910,-1.5325,-0.2795,-0.2453,-0.2389,-0.1059,0.0755,
23.5930,-1.5325,-0.2795,-0.2453,-0.2389,-0.1059,0.0755,
23.5940,-1.5325,-0.2795,-0.2453,-0.2389,-0.1059,0.0755,
23.5950,-1.5325,-0.2795,-0.2453,-0.2389,-0.1059,0.0755,
23.5960,-1.5325,-0.2795,-0.2453,-0.1741,-0.2025,0.0840,
23.6300,-0.9658,-0.2532,-0.1964,-0.1741,-0.2025,0.0840,
23.6330,-0.9658,-0.2532,-0.1964,-0.1014,-0.2348,0.0969,
23.6690,-0.9658,-0.2532,-0.1964,-0.1014,-0.2348,0.0969,
23.6720,-0.9658,-0.2532,-0.1964,-0.1014,-0.2348,0.0969,
23.6730,-0.9658,-0.2532,-0.1964,-0.1014,-0.2348,0.0969,
23.6740,-0.9658,-0.2532,-0.1964,-0.1014,-0.2348,0.0969,
23.6750,-0.9658,-0.2532,-0.1964,-0.0862,-0.2318,0.0963,
23.6770,-0.5777,-0.1699,-0.2644,-0.0862,-0.2318,0.0963,
23.7080,-0.5777,-0.1699,-0.2644,-0.1051,-0.2183,0.0694,
23.7460,-0.5777,-0.1699,-0.2644,-0.1051,-0.2183,0.0694,
23.7470,-0.5777,-0.1699,-0.2644,-0.1051,-0.2183,0.0694,
23.7480,-0.5777,-0.1699,-0.2644,-0.1051,-0.2183,0.0694,
23.7490,-0.5777,-0.1699,-0.2644,-0.1051,-0.2183,0.0694,
23.7490,-0.5777,-0.1699,-0.2644,-0.0929,-0.1774,0.0639,
23.7500,-0.2576,-0.0831,-0.2610,-0.0929,-0.1774,0.0639,
23.7860,-0.2576,-0.0831,-0.2610,-0.0794,-0.0943,0.0822,
23.7880,0.5392,-0.2412,-0.0333,-0.0794,-0.0943,0.0822,
23.8250,0.5392,-0.2412,-0.0333,-0.0794,-0.0943,0.0822,
