
time,ax,ay,az,wx,wy,wz,
0.0750,0.0000,0.0000,0.0000,0.0000,0.0000,0.0000,
0.0760,0.0000,0.0000,0.0000,0.0000,0.0000,0.0000,
0.0760,0.0000,0.0000,0.0000,0.0000,0.0000,0.0000,
0.0760,0.0000,0.0000,0.0000,0.0000,0.0000,0.0000,
0.0760,0.0000,0.0000,0.0000,0.0000,0.0000,0.0000,
0.0770,0.0000,0.0000,0.0000,0.0000,0.0000,0.0000,
0.0770,0.0000,0.0000,0.0000,0.0000,0.0000,0.0000,
0.0770,0.0000,0.0000,0.0000,0.0000,0.0000,0.0000,
0.0770,0.0000,0.0000,0.0000,0.0000,0.0000,0.0000,
0.0770,0.0000,0.0000,0.0000,0.0000,0.0000,0.0000,
0.0770,0.0000,0.0000,0.0000,0.0000,0.0000,0.0000,
0.0780,0.0000,0.0000,0.0000,0.0000,0.0000,0.0000,
0.0780,0.0000,0.0000,0.0000,0.0000,0.0000,0.0000,
0.0780,0.0000,0.0000,0.0000,0.0000,0.0000,0.0000,
0.0780,0.0000,0.0000,0.0000,0.0000,0.0000,0.0000,
0.0780,0.0000,0.0000,0.0000,0.0000,0.0000,0.0000,
0.0790,0.0000,0.0000,0.0000,0.0000,0.0000,0.0000,
0.0790,0.0000,0.0000,0.0000,0.0000,0.0000,0.0000,
0.0790,0.0000,0.0000,0.0000,0.0000,0.0000,0.0000,
0.0790,0.0000,0.0000,0.0000,0.0000,0.0000,0.0000,
0.0790,0.0000,0.0000,0.0000,0.0000,0.0000,0.0000,
0.0800,0.0000,0.0000,0.0000,0.0000,0.0000,0.0000,
0.0800,0.0000,0.0000,0.0000,0.0000,0.0000,0.0000,
0.0800,0.0000,0.0000,0.0000,0.0000,0.0000,0.0000,
0.0800,0.0000,0.0000,0.0000,0.0000,0.0000,0.0000,
0.0800,0.0000,0.0000,0.0000,0.0000,0.0000,0.0000,
0.0810,0.0000,0.0000,0.0000,0.0000,0.0000,0.0000,
0.0810,0.0000,0.0000,0.0000,0.0000,0.0000,0.0000,
0.0810,0.0000,0.0000,0.0000,0.0000,0.0000,0.0000,
0.0810,0.0000,0.0000,0.0000,0.0000,0.0000,0.0000,
0.0810,0.0000,0.0000,0.0000,0.0000,0.0000,0.0000,
0.0820,0.0000,0.0000,0.0000,0.0000,0.0000,0.0000,
0.0820,0.0000,0.0000,0.0000,0.0000,0.0000,0.0000,
0.0820,0.0000,0.0000,0.0000,0.0000,0.0000,0.0000,
0.0820,0.0000,0.0000,0.0000,0.0000,0.0000,0.0000,
0.0820,0.0000,0.0000,0.0000,0.0000,0.0000,0.0000,
0.0820,0.0000,0.0000,0.0000,0.0000,0.0000,0.0000,
0.1440,0.0000,0.0000,0.0000,0.0000,0.0000,0.0000,
0.1450,0.0000,0.0000,0.0000,0.0000,0.0000,0.0000,
0.1460,0.0000,0.0000,0.0000,0.0000,0.0000,0.0000,
0.1930,0.0000,0.0000,0.0000,0.0000,0.0000,0.0000,
0.1940,0.0000,0.0000,0.0000,0.0000,0.0000,0.0000,
0.1950,0.0000,0.0000,0.0000,0.0000,0.0000,0.0000,
0.1950,0.0000,0.0000,0.0000,0.0269,0.0630,-0.0078,
0.1960,-0.0487,0.0411,0.0270,0.0269,0.0630,-0.0078,
0.2590,-0.0487,0.0411,0.0270,0.0269,0.0630,-0.0078,
0.2590,-0.0487,0.0411,0.0270,0.0269,0.0630,-0.0078,
0.2600,-0.0487,0.0411,0.0270,0.0269,0.0630,-0.0078,
0.2600,-0.0291,-0.0093,0.0135,0.0269,0.0630,-0.0078,
0.2610,-0.0291,-0.0093,0.0135,0.0031,0.0064,0.0040,
0.3070,-0.0291,-0.0093,0.0135,0.0031,0.0064,0.0040,
0.3080,-0.0291,-0.0093,0.0135,0.0031,0.0064,0.0040,
0.3080,-0.0291,-0.0093,0.0135,0.0031,0.0064,0.0040,
0.3090,-0.0291,-0.0093,0.0135,0.0056,-0.0070,-0.0001,
0.3090,0.0602,-0.0434,0.0174,0.0056,-0.0070,-0.0001,
0.3760,0.0602,-0.0434,0.0174,0.0056,-0.0070,-0.0001,
0.3770,0.0602,-0.0434,0.0174,0.0056,-0.0070,-0.0001,
0.3770,0.0602,-0.0434,0.0174,0.0056,-0.0070,-0.0001,
0.3780,0.0602,-0.0434,0.0174,0.0117,0.0186,-0.0021,
0.3780,0.0246,-0.0419,0.0490,0.0117,0.0186,-0.0021,
0.4250,0.0246,-0.0419,0.0490,0.0117,0.0186,-0.0021,
0.4260,0.0246,-0.0419,0.0490,0.0117,0.0186,-0.0021,
0.4270,0.0246,-0.0419,0.0490,0.0117,0.0186,-0.0021,
0.4270,0.0246,-0.0419,0.0490,0.0394,0.0443,-0.0009,
0.4280,-0.0185,0.0107,-0.0634,0.0394,0.0443,-0.0009,
0.4900,-0.0185,0.0107,-0.0634,0.0394,0.0443,-0.0009,
0.4910,-0.0185,0.0107,-0.0634,0.0394,0.0443,-0.0009,
0.4910,-0.0185,0.0107,-0.0634,0.0394,0.0443,-0.0009,
0.4920,-0.0185,0.0107,-0.0634,-0.0185,-0.0176,0.0732,
0.4920,0.1840,0.2947,0.0327,-0.0185,-0.0176,0.0732,
0.5400,0.1840,0.2947,0.0327,-0.0185,-0.0176,0.0732,
0.5400,0.1840,0.2947,0.0327,-0.0185,-0.0176,0.0732,
0.5410,0.1840,0.2947,0.0327,-0.0185,-0.0176,0.0732,
0.5410,0.1840,0.2947,0.0327,-0.0576,-0.0384,0.0251,
0.5420,-0.0151,-0.2783,0.0119,-0.0576,-0.0384,0.0251,
0.6050,-0.0151,-0.2783,0.0119,-0.0576,-0.0384,0.0251,
0.6060,-0.0151,-0.2783,0.0119,-0.0576,-0.0384,0.0251,
0.6060,-0.0151,-0.2783,0.0119,-0.0576,-0.0384,0.0251,
0.6070,-0.0151,-0.2783,0.0119,0.0117,0.0545,0.0011,
0.6070,0.0206,0.0741,0.0428,0.0117,0.0545,0.0011,
0.6720,0.0206,0.0741,0.0428,0.0117,0.0545,0.0011,
0.6730,0.0206,0.0741,0.0428,0.0117,0.0545,0.0011,
0.6740,0.0206,0.0741,0.0428,0.0117,0.0545,0.0011,
0.6740,0.0206,0.0741,0.0428,-0.0038,0.0435,0.0015,
0.6750,0.0060,-0.0120,-0.0149,-0.0038,0.0435,0.0015,
0.7230,0.0060,-0.0120,-0.0149,-0.0038,0.0435,0.0015,
0.7240,0.0060,-0.0120,-0.0149,-0.0038,0.0435,0.0015,
0.7250,0.0060,-0.0120,-0.0149,-0.0038,0.0435,0.0015,
0.7260,0.0060,-0.0120,-0.0149,0.0007,0.0463,-0.0038,
0.7270,-0.0552,0.0104,0.0391,0.0007,0.0463,-0.0038,
0.7880,-0.0552,0.0104,0.0391,0.0007,0.0463,-0.0038,
0.7890,-0.0552,0.0104,0.0391,0.0007,0.0463,-0.0038,
0.7900,-0.0552,0.0104,0.0391,0.0007,0.0463,-0.0038,
0.7900,-0.0552,0.0104,0.0391,-0.0009,0.0280,0.0015,
0.7910,-0.0420,0.0006,0.0217,-0.0009,0.0280,0.0015,
0.8370,-0.0420,0.0006,0.0217,-0.0009,0.0280,0.0015,
0.8380,-0.0420,0.0006,0.0217,-0.0009,0.0280,0.0015,
0.8390,-0.0420,0.0006,0.0217,-0.0009,0.0280,0.0015,
0.8390,-0.0420,0.0006,0.0217,-0.0050,0.0178,0.0036,
0.8400,-0.0411,0.0014,0.0121,-0.0050,0.0178,0.0036,
0.9060,-0.0411,0.0014,0.0121,-0.0050,0.0178,0.0036,
0.9070,-0.0411,0.0014,0.0121,-0.0050,0.0178,0.0036,
0.9070,-0.0411,0.0014,0.0121,-0.0050,0.0178,0.0036,
0.9080,-0.0411,0.0014,0.0121,-0.0062,0.0068,0.0003,
0.9090,-0.0053,-0.0042,0.0455,-0.0062,0.0068,0.0003,
0.9560,-0.0053,-0.0042,0.0455,-0.0062,0.0068,0.0003,
0.9570,-0.0053,-0.0042,0.0455,-0.0062,0.0068,0.0003,
0.9580,-0.0053,-0.0042,0.0455,-0.0062,0.0068,0.0003,
0.9580,-0.0053,-0.0042,0.0455,-0.0046,0.0003,-0.0025,
0.9590,-0.0460,-0.0110,0.0261,-0.0046,0.0003,-0.0025,
1.0210,-0.0460,-0.0110,0.0261,-0.0046,0.0003,-0.0025,
1.0220,-0.0460,-0.0110,0.0261,-0.0046,0.0003,-0.0025,
1.0230,-0.0460,-0.0110,0.0261,-0.0046,0.0003,-0.0025,
1.0230,-0.0460,-0.0110,0.0261,-0.0022,-0.0131,-0.0034,
1.0240,-0.0007,0.0016,0.0207,-0.0022,-0.0131,-0.0034,
1.0700,-0.0007,0.0016,0.0207,-0.0022,-0.0131,-0.0034,
1.0710,-0.0007,0.0016,0.0207,-0.0022,-0.0131,-0.0034,
1.0720,-0.0007,0.0016,0.0207,-0.0022,-0.0131,-0.0034,
1.0730,-0.0007,0.0016,0.0207,-0.0022,-0.0201,-0.0021,
1.0730,0.0019,0.0049,0.0253,-0.0022,-0.0201,-0.0021,
1.1360,0.0019,0.0049,0.0253,-0.0022,-0.0201,-0.0021,
1.1370,0.0019,0.0049,0.0253,-0.0022,-0.0201,-0.0021,
1.1370,0.0019,0.0049,0.0253,-0.0022,-0.0201,-0.0021,
1.1380,0.0019,0.0049,0.0253,-0.0050,-0.0160,-0.0001,
1.1380,0.0043,-0.0045,0.0028,-0.0050,-0.0160,-0.0001,
1.1860,0.0043,-0.0045,0.0028,-0.0050,-0.0160,-0.0001,
1.1870,0.0043,-0.0045,0.0028,-0.0050,-0.0160,-0.0001,
1.1880,0.0043,-0.0045,0.0028,-0.0050,-0.0160,-0.0001,
1.1880,0.0043,-0.0045,0.0028,-0.0095,-0.0168,0.0027,
1.1890,0.0405,-0.0105,0.0321,-0.0095,-0.0168,0.0027,
1.2490,0.0405,-0.0105,0.0321,-0.0095,-0.0168,0.0027,
1.2500,0.0405,-0.0105,0.0321,-0.0095,-0.0168,0.0027,
1.2500,0.0405,-0.0105,0.0321,-0.0095,-0.0168,0.0027,
1.2500,0.0405,-0.0105,0.0321,-0.0038,-0.0074,0.0003,
1.2510,0.0130,-0.0075,0.0212,-0.0038,-0.0074,0.0003,
1.3010,0.0130,-0.0075,0.0212,-0.0038,-0.0074,0.0003,
1.3020,0.0130,-0.0075,0.0212,-0.0038,-0.0074,0.0003,
1.3030,0.0130,-0.0075,0.0212,-0.0038,-0.0074,0.0003,
1.3030,0.0130,-0.0075,0.0212,-0.0014,0.0024,0.0011,
1.3040,0.0080,-0.0075,0.0141,-0.0014,0.0024,0.0011,
1.3690,0.0080,-0.0075,0.0141,-0.0014,0.0024,0.0011,
1.3700,0.0080,-0.0075,0.0141,-0.0014,0.0024,0.0011,
1.3700,0.0080,-0.0075,0.0141,-0.0014,0.0024,0.0011,
1.3710,0.0080,-0.0075,0.0141,0.0019,0.0105,-0.0013,
1.3710,-0.0036,-0.0001,-0.0015,0.0019,0.0105,-0.0013,
1.4190,-0.0036,-0.0001,-0.0015,0.0019,0.0105,-0.0013,
1.4200,-0.0036,-0.0001,-0.0015,0.0019,0.0105,-0.0013,
1.4200,-0.0036,-0.0001,-0.0015,0.0019,0.0105,-0.0013,
1.4210,0.0118,0.0164,0.0119,0.0019,0.0105,-0.0013,
1.4210,0.0118,0.0164,0.0119,0.0011,0.0113,-0.0017,
1.4860,0.0118,0.0164,0.0119,0.0011,0.0113,-0.0017,
1.4870,0.0118,0.0164,0.0119,0.0011,0.0113,-0.0017,
1.4880,0.0118,0.0164,0.0119,0.0011,0.0113,-0.0017,
1.4880,0.0118,0.0164,0.0119,-0.0001,0.0211,-0.0030,
1.4890,-0.0136,-0.0051,0.0294,-0.0001,0.0211,-0.0030,
1.5360,-0.0136,-0.0051,0.0294,-0.0001,0.0211,-0.0030,
1.5370,-0.0136,-0.0051,0.0294,-0.0001,0.0211,-0.0030,
1.5380,-0.0136,-0.0051,0.0294,-0.0001,0.0211,-0.0030,
1.5380,-0.0136,-0.0051,0.0294,0.0019,0.0186,-0.0046,
1.5390,-0.0636,-0.0275,-0.0037,0.0019,0.0186,-0.0046,
1.6010,-0.0636,-0.0275,-0.0037,0.0019,0.0186,-0.0046,
1.6020,-0.0636,-0.0275,-0.0037,0.0019,0.0186,-0.0046,
1.6020,-0.0636,-0.0275,-0.0037,0.0019,0.0186,-0.0046,
1.6030,-0.0636,-0.0275,-0.0037,0.0035,0.0097,-0.0054,
1.6030,0.0008,0.0151,0.0118,0.0035,0.0097,-0.0054,
1.6670,0.0008,0.0151,0.0118,0.0035,0.0097,-0.0054,
1.6680,0.0008,0.0151,0.0118,0.0035,0.0097,-0.0054,
1.6690,0.0008,0.0151,0.0118,0.0035,0.0097,-0.0054,
1.6690,0.0008,0.0151,0.0118,-0.0001,0.0032,-0.0030,
1.6700,-0.0462,0.0214,0.0035,-0.0001,0.0032,-0.0030,
1.7160,-0.0462,0.0214,0.0035,-0.0001,0.0032,-0.0030,
1.7170,-0.0462,0.0214,0.0035,-0.0001,0.0032,-0.0030,
1.7180,-0.0462,0.0214,0.0035,-0.0001,0.0032,-0.0030,
1.7180,-0.0462,0.0214,0.0035,-0.0034,-0.0005,0.0032,
1.7190,0.0120,-0.0098,0.0113,-0.0034,-0.0005,0.0032,
1.7850,0.0120,-0.0098,0.0113,-0.0034,-0.0005,0.0032,
1.7860,0.0120,-0.0098,0.0113,-0.0034,-0.0005,0.0032,
1.7870,0.0120,-0.0098,0.0113,-0.0034,-0.0005,0.0032,
1.7870,0.0120,-0.0098,0.0113,-0.0058,0.0024,0.0019,
1.7880,0.0166,0.0085,0.0271,-0.0058,0.0024,0.0019,
1.8320,0.0166,0.0085,0.0271,-0.0058,0.0024,0.0019,
1.8330,0.0166,0.0085,0.0271,-0.0058,0.0024,0.0019,
1.8340,0.0166,0.0085,0.0271,-0.0058,0.0024,0.0019,
1.8340,0.0166,0.0085,0.0271,-0.0042,-0.0005,-0.0001,
1.8350,-0.0036,0.0016,0.0092,-0.0042,-0.0005,-0.0001,
1.8990,0.0246,0.0013,0.0021,-0.0042,-0.0005,-0.0001,
1.9000,0.0246,0.0013,0.0021,-0.0042,-0.0005,-0.0001,
1.9010,0.0246,0.0013,0.0021,-0.0042,-0.0005,-0.0001,
1.9020,0.0246,0.0013,0.0021,-0.0042,-0.0005,-0.0001,
1.9020,0.0246,0.0013,0.0021,-0.0001,-0.0054,0.0019,
1.9490,0.0246,0.0013,0.0021,-0.0001,-0.0054,0.0019,
1.9500,0.0246,0.0013,0.0021,-0.0001,-0.0054,0.0019,
1.9510,0.0246,0.0013,0.0021,-0.0001,-0.0054,0.0019,
1.9510,0.0246,0.0013,0.0021,-0.0022,-0.0017,0.0007,
1.9520,0.0110,0.0010,0.0071,-0.0022,-0.0017,0.0007,
2.0170,0.0110,0.0010,0.0071,-0.0022,-0.0017,0.0007,
2.0180,0.0110,0.0010,0.0071,-0.0022,-0.0017,0.0007,
2.0190,0.0110,0.0010,0.0071,-0.0022,-0.0017,0.0007,
2.0190,0.0110,0.0010,0.0071,-0.0022,-0.0021,0.0015,
2.0200,0.0134,0.0233,-0.0049,-0.0022,-0.0021,0.0015,
2.0660,0.0134,0.0233,-0.0049,-0.0022,-0.0021,0.0015,
2.0670,0.0134,0.0233,-0.0049,-0.0022,-0.0021,0.0015,
2.0680,0.0134,0.0233,-0.0049,-0.0022,-0.0021,0.0015,
2.0680,0.0134,0.0233,-0.0049,-0.0083,-0.0033,0.0003,
2.0690,0.0112,-0.0033,0.0019,-0.0083,-0.0033,0.0003,
2.1320,0.0112,-0.0033,0.0019,-0.0083,-0.0033,0.0003,
2.1330,0.0112,-0.0033,0.0019,-0.0083,-0.0033,0.0003,
2.1330,0.0112,-0.0033,0.0019,-0.0083,-0.0033,0.0003,
2.1340,0.0112,-0.0033,0.0019,-0.0099,0.0011,-0.0005,
2.1340,0.0144,0.0064,0.0102,-0.0099,0.0011,-0.0005,
2.1800,0.0144,0.0064,0.0102,-0.0099,0.0011,-0.0005,
2.1810,0.0144,0.0064,0.0102,-0.0099,0.0011,-0.0005,
2.1810,0.0144,0.0064,0.0102,-0.0099,0.0011,-0.0005,
2.1820,0.0144,0.0064,0.0102,-0.0091,-0.0005,-0.0017,
2.1830,0.0031,0.0009,0.0187,-0.0091,-0.0005,-0.0017,
2.2480,0.0031,0.0009,0.0187,-0.0091,-0.0005,-0.0017,
2.2480,0.0031,0.0009,0.0187,-0.0091,-0.0005,-0.0017,
2.2490,0.0031,0.0009,0.0187,-0.0091,-0.0005,-0.0017,
2.2500,0.0031,0.0009,0.0187,-0.0050,-0.0038,0.0007,
2.2500,0.0041,-0.0152,0.0053,-0.0050,-0.0038,0.0007,
2.2960,0.0041,-0.0152,0.0053,-0.0050,-0.0038,0.0007,
2.2970,0.0041,-0.0152,0.0053,-0.0050,-0.0038,0.0007,
2.2980,0.0041,-0.0152,0.0053,-0.0050,-0.0038,0.0007,
2.2980,0.0041,-0.0152,0.0053,-0.0062,-0.0042,0.0019,
2.2990,0.0426,0.0214,-0.0015,-0.0062,-0.0042,0.0019,
2.3660,0.0426,0.0214,-0.0015,-0.0062,-0.0042,0.0019,
2.3670,0.0426,0.0214,-0.0015,-0.0062,-0.0042,0.0019,
2.3680,0.0426,0.0214,-0.0015,-0.0062,-0.0042,0.0019,
2.3680,0.0426,0.0214,-0.0015,-0.0075,-0.0005,0.0007,
2.3690,0.0078,-0.0234,0.0388,-0.0075,-0.0005,0.0007,
2.4300,0.0078,-0.0234,0.0388,-0.0075,-0.0005,0.0007,
2.4310,0.0078,-0.0234,0.0388,-0.0075,-0.0005,0.0007,
2.4310,0.0078,-0.0234,0.0388,-0.0075,-0.0005,0.0007,
2.4320,0.0078,-0.0234,0.0388,0.0003,0.0007,-0.0009,
2.4330,-0.0175,-0.0037,-0.0235,0.0003,0.0007,-0.0009,
2.4790,-0.0175,-0.0037,-0.0235,0.0003,0.0007,-0.0009,
2.4800,-0.0175,-0.0037,-0.0235,0.0003,0.0007,-0.0009,
2.4800,-0.0175,-0.0037,-0.0235,0.0003,0.0007,-0.0009,
2.4810,-0.0175,-0.0037,-0.0235,0.0003,-0.0074,-0.0005,
2.4820,0.0100,0.0039,0.0554,0.0003,-0.0074,-0.0005,
2.5450,-0.0126,0.0076,0.0021,0.0003,-0.0074,-0.0005,
2.5460,-0.0126,0.0076,0.0021,0.0003,-0.0074,-0.0005,
2.5460,-0.0126,0.0076,0.0021,0.0003,-0.0074,-0.0005,
2.5470,-0.0126,0.0076,0.0021,0.0003,-0.0074,-0.0005,
2.5470,-0.0126,0.0076,0.0021,0.0031,-0.0090,0.0060,
2.5970,-0.0126,0.0076,0.0021,0.0031,-0.0090,0.0060,
2.5980,-0.0126,0.0076,0.0021,0.0031,-0.0090,0.0060,
2.5990,-0.0126,0.0076,0.0021,0.0031,-0.0090,0.0060,
2.5990,-0.0126,0.0076,0.0021,0.0056,-0.0090,0.0076,
2.6000,0.0295,-0.0274,0.0099,0.0056,-0.0090,0.0076,
2.6620,0.0197,0.0091,0.0238,0.0056,-0.0090,0.0076,
2.6630,0.0197,0.0091,0.0238,0.0056,-0.0090,0.0076,
2.6640,0.0197,0.0091,0.0238,0.0056,-0.0090,0.0076,
2.6640,0.0197,0.0091,0.0238,0.0056,-0.0090,0.0076,
2.6650,0.0197,0.0091,0.0238,0.0064,-0.0050,0.0052,
2.7120,0.0197,0.0091,0.0238,0.0064,-0.0050,0.0052,
2.7140,0.0197,0.0091,0.0238,0.0064,-0.0050,0.0052,
2.7150,0.0197,0.0091,0.0238,0.0064,-0.0050,0.0052,
2.7160,0.0197,0.0091,0.0238,0.0068,0.0007,0.0011,
2.7160,0.0190,-0.0184,0.0515,0.0068,0.0007,0.0011,
2.7770,0.0190,-0.0184,0.0515,0.0068,0.0007,0.0011,
2.7780,0.0190,-0.0184,0.0515,0.0068,0.0007,0.0011,
2.7780,0.0190,-0.0184,0.0515,0.0068,0.0007,0.0011,
2.7790,0.0190,-0.0184,0.0515,0.0117,0.0003,0.0007,
2.7800,-0.0012,-0.0227,0.0446,0.0117,0.0003,0.0007,
2.8320,-0.0012,-0.0227,0.0446,0.0117,0.0003,0.0007,
2.8340,-0.0012,-0.0227,0.0446,0.0117,0.0003,0.0007,
2.8370,-0.0012,-0.0227,0.0446,0.0117,0.0003,0.0007,
2.8400,-0.0012,-0.0227,0.0446,0.0157,0.0036,-0.0017,
2.8410,0.0017,0.0079,0.0251,0.0157,0.0036,-0.0017,
2.8810,0.0017,0.0079,0.0251,0.0157,0.0036,-0.0017,
2.8820,0.0017,0.0079,0.0251,0.0157,0.0036,-0.0017,
2.8830,0.0017,0.0079,0.0251,0.0157,0.0036,-0.0017,
2.8840,0.0017,0.0079,0.0251,0.0153,0.0015,-0.0025,
2.8850,-0.0101,0.0259,-0.0088,0.0153,0.0015,-0.0025,
2.9290,-0.0101,0.0259,-0.0088,0.0068,0.0020,-0.0030,
2.9310,-0.0076,0.0237,-0.0043,0.0068,0.0020,-0.0030,
2.9320,-0.0076,0.0237,-0.0043,0.0068,0.0020,-0.0030,
2.9330,-0.0076,0.0237,-0.0043,0.0068,0.0020,-0.0030,
2.9790,-0.0076,0.0237,-0.0043,0.0068,0.0020,-0.0030,
2.9790,-0.0076,0.0237,-0.0043,0.0068,0.0020,-0.0030,
2.9800,-0.0076,0.0237,-0.0043,0.0068,0.0020,-0.0030,
2.9800,-0.0076,0.0237,-0.0043,0.0023,-0.0001,-0.0050,
2.9810,-0.0049,0.0158,-0.0027,0.0023,-0.0001,-0.0050,
3.0400,-0.0049,0.0158,-0.0027,0.0023,-0.0001,-0.0050,
3.0410,-0.0049,0.0158,-0.0027,0.0023,-0.0001,-0.0050,
3.0420,-0.0049,0.0158,-0.0027,0.0023,-0.0001,-0.0050,
3.0430,-0.0049,0.0158,-0.0027,-0.0026,-0.0005,-0.0042,
3.0430,-0.0093,0.0169,0.0133,-0.0026,-0.0005,-0.0042,
3.0970,-0.0093,0.0169,0.0133,-0.0026,-0.0005,-0.0042,
3.0990,-0.0093,0.0169,0.0133,-0.0026,-0.0005,-0.0042,
3.1000,-0.0093,0.0169,0.0133,-0.0026,-0.0005,-0.0042,
3.1020,-0.0093,0.0169,0.0133,-0.0022,-0.0017,0.0003,
3.1030,-0.0168,0.0014,0.0071,-0.0022,-0.0017,0.0003,
3.1600,-0.0168,0.0014,0.0071,-0.0022,-0.0017,0.0003,
3.1620,-0.0168,0.0014,0.0071,-0.0022,-0.0017,0.0003,
3.1640,-0.0168,0.0014,0.0071,-0.0022,-0.0017,0.0003,
3.1650,-0.0168,0.0014,0.0071,-0.0038,0.0028,-0.0017,
3.1660,0.0148,0.0068,-0.0260,-0.0038,0.0028,-0.0017,
3.2140,0.0148,0.0068,-0.0260,-0.0038,0.0028,-0.0017,
3.2160,0.0148,0.0068,-0.0260,-0.0038,0.0028,-0.0017,
3.2170,0.0148,0.0068,-0.0260,-0.0038,0.0028,-0.0017,
3.2180,0.0148,0.0068,-0.0260,-0.0046,0.0020,-0.0021,
3.2200,-0.0136,0.0072,-0.0175,-0.0046,0.0020,-0.0021,
3.2770,-0.0136,0.0072,-0.0175,-0.0046,0.0020,-0.0021,
3.2780,-0.0136,0.0072,-0.0175,-0.0046,0.0020,-0.0021,
3.2790,-0.0136,0.0072,-0.0175,-0.0046,0.0020,-0.0021,
3.2810,-0.0136,0.0072,-0.0175,-0.0042,-0.0050,0.0023,
3.2820,-0.0164,-0.0018,-0.0187,-0.0042,-0.0050,0.0023,
3.3300,-0.0164,-0.0018,-0.0187,-0.0042,-0.0050,0.0023,
3.3310,-0.0164,-0.0018,-0.0187,-0.0042,-0.0050,0.0023,
3.3320,-0.0164,-0.0018,-0.0187,-0.0042,-0.0050,0.0023,
3.3330,-0.0164,-0.0018,-0.0187,0.0027,0.0048,-0.0009,
3.3340,0.0295,-0.0084,-0.0015,0.0027,0.0048,-0.0009,
3.3900,0.0295,-0.0084,-0.0015,0.0027,0.0048,-0.0009,
3.3910,0.0295,-0.0084,-0.0015,0.0027,0.0048,-0.0009,
3.3920,0.0295,-0.0084,-0.0015,0.0027,0.0048,-0.0009,
3.3920,0.0295,-0.0084,-0.0015,0.0113,0.0060,-0.0038,
3.3930,0.0086,-0.0200,0.0146,0.0113,0.0060,-0.0038,
3.4460,0.0086,-0.0200,0.0146,0.0113,0.0060,-0.0038,
3.4480,0.0086,-0.0200,0.0146,0.0113,0.0060,-0.0038,
3.4480,0.0086,-0.0200,0.0146,0.0113,0.0060,-0.0038,
3.4480,0.0086,-0.0200,0.0146,0.0080,-0.0033,-0.0021,
3.4490,-0.0287,0.0049,-0.0257,0.0080,-0.0033,-0.0021,
3.5070,-0.0287,0.0049,-0.0257,0.0080,-0.0033,-0.0021,
3.5080,-0.0287,0.0049,-0.0257,0.0080,-0.0033,-0.0021,
3.5100,-0.0287,0.0049,-0.0257,0.0080,-0.0033,-0.0021,
3.5110,-0.0287,0.0049,-0.0257,0.0052,-0.0017,0.0019,
3.5120,-0.0029,0.0096,0.0159,0.0052,-0.0017,0.0019,
3.5660,-0.0029,0.0096,0.0159,0.0052,-0.0017,0.0019,
3.5680,-0.0029,0.0096,0.0159,0.0052,-0.0017,0.0019,
3.5690,-0.0029,0.0096,0.0159,0.0052,-0.0017,0.0019,
3.5700,-0.0029,0.0096,0.0159,0.0015,0.0040,0.0027,
3.5710,0.0014,0.0127,-0.0388,0.0015,0.0040,0.0027,
3.6250,0.0014,0.0127,-0.0388,0.0015,0.0040,0.0027,
3.6270,0.0014,0.0127,-0.0388,0.0015,0.0040,0.0027,
3.6290,0.0014,0.0127,-0.0388,0.0015,0.0040,0.0027,
3.6300,0.0014,0.0127,-0.0388,-0.0001,0.0081,-0.0005,
3.6310,0.0329,0.0056,0.0169,-0.0001,0.0081,-0.0005,
3.6820,0.0329,0.0056,0.0169,-0.0001,0.0081,-0.0005,
3.6850,0.0329,0.0056,0.0169,-0.0001,0.0081,-0.0005,
3.6860,0.0329,0.0056,0.0169,-0.0001,0.0081,-0.0005,
3.6870,0.0329,0.0056,0.0169,0.0023,0.0068,-0.0013,
3.6880,-0.0117,-0.0026,0.0031,0.0023,0.0068,-0.0013,
3.7410,-0.0117,-0.0026,0.0031,0.0023,0.0068,-0.0013,
3.7430,-0.0117,-0.0026,0.0031,0.0023,0.0068,-0.0013,
3.7440,-0.0117,-0.0026,0.0031,0.0023,0.0068,-0.0013,
3.7450,-0.0117,-0.0026,0.0031,0.0007,0.0056,0.0003,
3.7470,0.0202,0.0197,-0.0036,0.0007,0.0056,0.0003,
3.8000,0.0202,0.0197,-0.0036,0.0007,0.0056,0.0003,
3.8030,0.0202,0.0197,-0.0036,0.0007,0.0056,0.0003,
3.8040,0.0202,0.0197,-0.0036,0.0007,0.0056,0.0003,
3.8060,0.0202,0.0197,-0.0036,-0.0005,0.0068,0.0007,
3.8070,-0.0091,-0.0017,0.0068,-0.0005,0.0068,0.0007,
3.8580,-0.0091,-0.0017,0.0068,-0.0005,0.0068,0.0007,
3.8600,-0.0091,-0.0017,0.0068,-0.0005,0.0068,0.0007,
3.8620,-0.0091,-0.0017,0.0068,-0.0005,0.0068,0.0007,
3.8630,-0.0091,-0.0017,0.0068,-0.0005,0.0007,-0.0001,
3.8640,-0.0060,-0.0086,-0.0084,-0.0005,0.0007,-0.0001,
3.9170,-0.0060,-0.0086,-0.0084,-0.0005,0.0007,-0.0001,
3.9190,-0.0060,-0.0086,-0.0084,-0.0005,0.0007,-0.0001,
3.9200,-0.0060,-0.0086,-0.0084,-0.0005,0.0007,-0.0001,
3.9210,-0.0060,-0.0086,-0.0084,-0.0014,-0.0033,-0.0009,
3.9230,0.0131,0.0051,-0.0026,-0.0014,-0.0033,-0.0009,
3.9610,0.0131,0.0051,-0.0026,-0.0014,-0.0033,-0.0009,
3.9630,0.0131,0.0051,-0.0026,-0.0014,-0.0033,-0.0009,
4.0140,0.0131,0.0051,-0.0026,-0.0014,-0.0033,-0.0009,
4.0160,0.0131,0.0051,-0.0026,-0.0014,-0.0033,-0.0009,
4.0180,0.0131,0.0051,-0.0026,-0.0014,-0.0033,-0.0009,
4.0190,0.0131,0.0051,-0.0026,-0.0030,-0.0038,0.0011,
4.0200,0.0185,0.0113,0.0009,-0.0030,-0.0038,0.0011,
4.0730,0.0185,0.0113,0.0009,-0.0030,-0.0038,0.0011,
4.0760,0.0185,0.0113,0.0009,-0.0030,-0.0038,0.0011,
4.0780,0.0185,0.0113,0.0009,-0.0030,-0.0038,0.0011,
4.0790,0.0095,0.0062,-0.0116,-0.0030,-0.0038,0.0011,
4.0800,0.0095,0.0062,-0.0116,-0.0042,-0.0054,0.0003,
4.1320,0.0095,0.0062,-0.0116,-0.0042,-0.0054,0.0003,
4.1340,0.0095,0.0062,-0.0116,-0.0042,-0.0054,0.0003,
4.1350,0.0095,0.0062,-0.0116,-0.0042,-0.0054,0.0003,
4.1360,0.0095,0.0062,-0.0116,-0.0083,-0.0054,0.0027,
4.1370,0.0181,-0.0051,0.0186,-0.0083,-0.0054,0.0027,
4.1900,0.0181,-0.0051,0.0186,-0.0083,-0.0054,0.0027,
4.1920,0.0181,-0.0051,0.0186,-0.0083,-0.0054,0.0027,
4.1930,0.0181,-0.0051,0.0186,-0.0083,-0.0054,0.0027,
4.1950,0.0181,-0.0051,0.0186,-0.0042,0.0011,0.0044,
4.1960,0.0180,-0.0179,0.0478,-0.0042,0.0011,0.0044,
4.2490,0.0180,-0.0179,0.0478,-0.0042,0.0011,0.0044,
4.2510,0.0180,-0.0179,0.0478,-0.0042,0.0011,0.0044,
4.2520,0.0180,-0.0179,0.0478,-0.0042,0.0011,0.0044,
4.2530,0.0180,-0.0179,0.0478,0.0052,0.0048,0.0015,
4.2550,0.0192,0.0014,0.0240,0.0052,0.0048,0.0015,
4.3080,0.0192,0.0014,0.0240,0.0052,0.0048,0.0015,
4.3100,0.0192,0.0014,0.0240,0.0052,0.0048,0.0015,
4.3110,0.0192,0.0014,0.0240,0.0052,0.0048,0.0015,
4.3120,0.0192,0.0014,0.0240,0.0072,0.0052,-0.0009,
4.3140,0.0136,0.0025,0.0218,0.0072,0.0052,-0.0009,
4.3650,0.0136,0.0025,0.0218,0.0072,0.0052,-0.0009,
4.3670,0.0136,0.0025,0.0218,0.0072,0.0052,-0.0009,
4.3670,0.0136,0.0025,0.0218,0.0072,0.0052,-0.0009,
4.3680,0.0136,0.0025,0.0218,0.0076,0.0024,-0.0017,
4.3680,-0.0205,0.0106,0.0198,0.0076,0.0024,-0.0017,
4.4240,-0.0205,0.0106,0.0198,0.0076,0.0024,-0.0017,
4.4250,-0.0205,0.0106,0.0198,0.0076,0.0024,-0.0017,
4.4260,-0.0205,0.0106,0.0198,0.0076,0.0024,-0.0017,
4.4260,-0.0205,0.0106,0.0198,0.0047,-0.0005,-0.0013,
4.4270,-0.0012,-0.0015,0.0348,0.0047,-0.0005,-0.0013,
4.4820,-0.0012,-0.0015,0.0348,0.0047,-0.0005,-0.0013,
4.4830,-0.0012,-0.0015,0.0348,0.0047,-0.0005,-0.0013,
4.4840,-0.0012,-0.0015,0.0348,0.0047,-0.0005,-0.0013,
4.4840,-0.0012,-0.0015,0.0348,0.0007,-0.0046,0.0015,
4.4850,-0.0150,-0.0014,0.0594,0.0007,-0.0046,0.0015,
4.5420,-0.0150,-0.0014,0.0594,0.0007,-0.0046,0.0015,
4.5440,-0.0150,-0.0014,0.0594,0.0007,-0.0046,0.0015,
4.5460,-0.0150,-0.0014,0.0594,0.0007,-0.0046,0.0015,
4.5470,-0.0150,-0.0014,0.0594,0.0035,-0.0074,0.0027,
4.5480,0.0319,-0.0465,0.0088,0.0035,-0.0074,0.0027,
4.6000,0.0319,-0.0465,0.0088,0.0035,-0.0074,0.0027,
4.6030,0.0319,-0.0465,0.0088,0.0035,-0.0074,0.0027,
4.6040,0.0319,-0.0465,0.0088,0.0035,-0.0074,0.0027,
4.6050,0.0319,-0.0465,0.0088,0.0076,-0.0029,-0.0034,
4.6070,-0.0258,-0.0023,-0.0183,0.0076,-0.0029,-0.0034,
4.6590,-0.0258,-0.0023,-0.0183,0.0076,-0.0029,-0.0034,
4.6610,-0.0258,-0.0023,-0.0183,0.0076,-0.0029,-0.0034,
4.6620,-0.0258,-0.0023,-0.0183,0.0076,-0.0029,-0.0034,
4.6630,-0.0258,-0.0023,-0.0183,0.0039,-0.0070,-0.0038,
4.6640,0.0128,0.0175,0.0492,0.0039,-0.0070,-0.0038,
4.7180,0.0128,0.0175,0.0492,0.0039,-0.0070,-0.0038,
4.7200,0.0128,0.0175,0.0492,0.0039,-0.0070,-0.0038,
4.7210,0.0128,0.0175,0.0492,0.0039,-0.0070,-0.0038,
4.7220,0.0128,0.0175,0.0492,-0.0005,-0.0086,0.0011,
4.7230,-0.0156,0.0240,0.0032,-0.0005,-0.0086,0.0011,
4.7770,-0.0156,0.0240,0.0032,-0.0005,-0.0086,0.0011,
4.7790,-0.0156,0.0240,0.0032,-0.0005,-0.0086,0.0011,
4.7800,-0.0156,0.0240,0.0032,-0.0005,-0.0086,0.0011,
4.7810,-0.0156,0.0240,0.0032,-0.0050,-0.0070,0.0056,
4.7820,0.0249,-0.0169,-0.0093,-0.0050,-0.0070,0.0056,
4.8350,0.0249,-0.0169,-0.0093,-0.0050,-0.0070,0.0056,
4.8370,0.0249,-0.0169,-0.0093,-0.0050,-0.0070,0.0056,
4.8380,0.0249,-0.0169,-0.0093,-0.0050,-0.0070,0.0056,
4.8400,0.0249,-0.0169,-0.0093,-0.0046,-0.0001,0.0019,
4.8410,0.0113,0.0236,0.0313,-0.0046,-0.0001,0.0019,
4.8940,0.0113,0.0236,0.0313,-0.0046,-0.0001,0.0019,
4.8960,0.0113,0.0236,0.0313,-0.0046,-0.0001,0.0019,
4.8980,0.0113,0.0236,0.0313,-0.0046,-0.0001,0.0019,
4.8990,0.0113,0.0236,0.0313,-0.0083,0.0044,-0.0021,
4.9000,-0.0254,-0.0355,0.0189,-0.0083,0.0044,-0.0021,
4.9510,-0.0254,-0.0355,0.0189,-0.0083,0.0044,-0.0021,
4.9540,-0.0254,-0.0355,0.0189,-0.0083,0.0044,-0.0021,
4.9550,-0.0254,-0.0355,0.0189,-0.0083,0.0044,-0.0021,
4.9570,-0.0254,-0.0355,0.0189,0.0031,-0.0042,0.0003,
4.9590,-0.0160,0.0005,0.0125,0.0031,-0.0042,0.0003,
5.0090,-0.0160,0.0005,0.0125,0.0031,-0.0042,0.0003,
5.0100,-0.0160,0.0005,0.0125,0.0031,-0.0042,0.0003,
5.0110,-0.0160,0.0005,0.0125,0.0031,-0.0042,0.0003,
5.0110,-0.0185,0.0018,0.0071,0.0031,-0.0042,0.0003,
5.0120,-0.0185,0.0018,0.0071,0.0080,-0.0038,-0.0009,
5.0690,-0.0185,0.0018,0.0071,0.0080,-0.0038,-0.0009,
5.0710,-0.0185,0.0018,0.0071,0.0080,-0.0038,-0.0009,
5.0720,-0.0185,0.0018,0.0071,0.0080,-0.0038,-0.0009,
5.0730,-0.0185,0.0018,0.0071,0.0088,-0.0062,-0.0005,
5.0740,-0.0058,0.0065,-0.0172,0.0088,-0.0062,-0.0005,
5.1270,-0.0058,0.0065,-0.0172,0.0088,-0.0062,-0.0005,
5.1290,-0.0058,0.0065,-0.0172,0.0088,-0.0062,-0.0005,
5.1310,-0.0058,0.0065,-0.0172,0.0088,-0.0062,-0.0005,
5.1320,-0.0058,0.0065,-0.0172,0.0031,-0.0127,-0.0005,
5.1330,0.0307,0.0038,0.0217,0.0031,-0.0127,-0.0005,
5.1860,0.0307,0.0038,0.0217,0.0031,-0.0127,-0.0005,
5.1880,0.0307,0.0038,0.0217,0.0031,-0.0127,-0.0005,
5.1890,0.0307,0.0038,0.0217,0.0031,-0.0127,-0.0005,
5.1910,0.0307,0.0038,0.0217,0.0035,-0.0078,-0.0005,
5.1920,-0.0017,0.0292,0.0157,0.0035,-0.0078,-0.0005,
5.2440,-0.0017,0.0292,0.0157,0.0035,-0.0078,-0.0005,
5.2470,-0.0017,0.0292,0.0157,0.0035,-0.0078,-0.0005,
5.2480,-0.0017,0.0292,0.0157,0.0035,-0.0078,-0.0005,
5.2490,-0.0017,0.0292,0.0157,-0.0014,-0.0062,0.0015,
5.2510,0.0456,-0.0075,0.0349,-0.0014,-0.0062,0.0015,
5.3030,0.0456,-0.0075,0.0349,-0.0014,-0.0062,0.0015,
5.3050,0.0456,-0.0075,0.0349,-0.0014,-0.0062,0.0015,
5.3070,0.0456,-0.0075,0.0349,-0.0014,-0.0062,0.0015,
5.3080,0.0298,0.0134,0.0204,-0.0014,-0.0062,0.0015,
5.3090,0.0298,0.0134,0.0204,0.0039,0.0028,-0.0001,
5.3620,0.0298,0.0134,0.0204,0.0039,0.0028,-0.0001,
5.3640,0.0298,0.0134,0.0204,0.0039,0.0028,-0.0001,
5.3650,0.0298,0.0134,0.0204,0.0039,0.0028,-0.0001,
5.3660,0.0298,0.0134,0.0204,0.0035,0.0101,-0.0001,
5.3680,0.0117,-0.0126,0.0162,0.0035,0.0101,-0.0001,
5.4200,0.0117,-0.0126,0.0162,0.0035,0.0101,-0.0001,
5.4220,0.0117,-0.0126,0.0162,0.0035,0.0101,-0.0001,
5.4230,0.0117,-0.0126,0.0162,0.0035,0.0101,-0.0001,
5.4250,0.0117,-0.0126,0.0162,0.0052,0.0146,-0.0013,
5.4260,0.0079,0.0012,0.0065,0.0052,0.0146,-0.0013,
5.4790,0.0079,0.0012,0.0065,0.0052,0.0146,-0.0013,
5.4810,0.0079,0.0012,0.0065,0.0052,0.0146,-0.0013,
5.4820,0.0079,0.0012,0.0065,0.0052,0.0146,-0.0013,
5.4830,0.0079,0.0012,0.0065,0.0052,0.0125,-0.0017,
5.4840,0.0014,-0.0148,0.0197,0.0052,0.0125,-0.0017,
5.5370,0.0014,-0.0148,0.0197,0.0052,0.0125,-0.0017,
5.5390,0.0014,-0.0148,0.0197,0.0052,0.0125,-0.0017,
5.5400,0.0014,-0.0148,0.0197,0.0052,0.0125,-0.0017,
5.5420,0.0014,-0.0148,0.0197,0.0092,0.0154,-0.0054,
5.5440,-0.0261,0.0055,0.0216,0.0092,0.0154,-0.0054,
5.5960,-0.0261,0.0055,0.0216,0.0092,0.0154,-0.0054,
5.5970,-0.0261,0.0055,0.0216,0.0092,0.0154,-0.0054,
5.5980,-0.0261,0.0055,0.0216,0.0092,0.0154,-0.0054,
5.5990,-0.0261,0.0055,0.0216,0.0113,0.0020,-0.0054,
5.6010,-0.0029,0.0024,0.0087,0.0113,0.0020,-0.0054,
5.6540,-0.0029,0.0024,0.0087,0.0113,0.0020,-0.0054,
5.6570,-0.0029,0.0024,0.0087,0.0113,0.0020,-0.0054,
5.6590,-0.0029,0.0024,0.0087,0.0113,0.0020,-0.0054,
5.6610,0.0080,-0.0143,0.0237,0.0113,0.0020,-0.0054,
5.6620,0.0080,-0.0143,0.0237,0.0129,0.0044,-0.0074,
5.7130,0.0080,-0.0143,0.0237,0.0129,0.0044,-0.0074,
5.7150,0.0080,-0.0143,0.0237,0.0129,0.0044,-0.0074,
5.7160,0.0080,-0.0143,0.0237,0.0129,0.0044,-0.0074,
5.7170,0.0080,-0.0143,0.0237,0.0161,0.0003,-0.0070,
5.7190,-0.0298,0.0172,-0.0431,0.0161,0.0003,-0.0070,
5.7720,-0.0298,0.0172,-0.0431,0.0161,0.0003,-0.0070,
5.7740,-0.0298,0.0172,-0.0431,0.0161,0.0003,-0.0070,
5.7750,-0.0298,0.0172,-0.0431,0.0161,0.0003,-0.0070,
5.7760,-0.0298,0.0172,-0.0431,0.0076,-0.0058,-0.0058,
5.7780,0.0265,0.0211,0.0191,0.0076,-0.0058,-0.0058,
5.8300,0.0265,0.0211,0.0191,0.0076,-0.0058,-0.0058,
5.8320,0.0265,0.0211,0.0191,0.0076,-0.0058,-0.0058,
5.8330,0.0265,0.0211,0.0191,0.0076,-0.0058,-0.0058,
5.8340,0.0265,0.0211,0.0191,0.0027,-0.0046,-0.0025,
5.8360,0.0117,0.0028,-0.0025,0.0027,-0.0046,-0.0025,
5.8880,0.0117,0.0028,-0.0025,0.0027,-0.0046,-0.0025,
5.8900,0.0117,0.0028,-0.0025,0.0027,-0.0046,-0.0025,
5.8910,0.0117,0.0028,-0.0025,0.0027,-0.0046,-0.0025,
5.8930,0.0117,0.0028,-0.0025,0.0011,0.0003,-0.0005,
5.8940,0.0262,0.0019,0.0062,0.0011,0.0003,-0.0005,
5.9480,0.0262,0.0019,0.0062,0.0011,0.0003,-0.0005,
5.9500,0.0262,0.0019,0.0062,0.0011,0.0003,-0.0005,
5.9510,0.0262,0.0019,0.0062,0.0011,0.0003,-0.0005,
5.9520,0.0262,0.0019,0.0062,0.0011,0.0072,-0.0001,
5.9530,0.0235,-0.0011,-0.0021,0.0011,0.0072,-0.0001,
6.0060,0.0235,-0.0011,-0.0021,0.0011,0.0072,-0.0001,
6.0080,0.0235,-0.0011,-0.0021,0.0011,0.0072,-0.0001,
6.0100,0.0235,-0.0011,-0.0021,0.0011,0.0072,-0.0001,
6.0110,0.0069,0.0174,0.0064,0.0011,0.0072,-0.0001,
6.0120,0.0069,0.0174,0.0064,-0.0001,0.0085,-0.0001,
6.0640,0.0069,0.0174,0.0064,-0.0001,0.0085,-0.0001,
6.0670,0.0069,0.0174,0.0064,-0.0001,0.0085,-0.0001,
6.0680,0.0069,0.0174,0.0064,-0.0001,0.0085,-0.0001,
6.0690,0.0069,0.0174,0.0064,-0.0001,0.0052,-0.0001,
6.0700,-0.0019,0.0035,0.0073,-0.0001,0.0052,-0.0001,
6.1230,-0.0019,0.0035,0.0073,-0.0001,0.0052,-0.0001,
6.1250,-0.0019,0.0035,0.0073,-0.0001,0.0052,-0.0001,
6.1260,-0.0019,0.0035,0.0073,-0.0001,0.0052,-0.0001,
6.1280,-0.0019,0.0035,0.0073,-0.0001,0.0097,-0.0009,
6.1290,-0.0218,-0.0054,-0.0079,-0.0001,0.0097,-0.0009,
6.1820,-0.0218,-0.0054,-0.0079,-0.0001,0.0097,-0.0009,
6.1840,-0.0218,-0.0054,-0.0079,-0.0001,0.0097,-0.0009,
6.1850,-0.0218,-0.0054,-0.0079,-0.0001,0.0097,-0.0009,
6.1870,-0.0014,0.0030,0.0092,-0.0001,0.0097,-0.0009,
6.1880,-0.0014,0.0030,0.0092,-0.0001,-0.0001,-0.0005,
6.2400,-0.0014,0.0030,0.0092,-0.0001,-0.0001,-0.0005,
6.2420,-0.0014,0.0030,0.0092,-0.0001,-0.0001,-0.0005,
6.2430,-0.0014,0.0030,0.0092,-0.0001,-0.0001,-0.0005,
6.2450,-0.0014,0.0030,0.0092,0.0007,-0.0042,-0.0001,
6.2460,-0.0165,-0.0001,0.0062,0.0007,-0.0042,-0.0001,
6.2990,-0.0165,-0.0001,0.0062,0.0007,-0.0042,-0.0001,
6.3010,-0.0165,-0.0001,0.0062,0.0007,-0.0042,-0.0001,
6.3020,-0.0165,-0.0001,0.0062,0.0007,-0.0042,-0.0001,
6.3030,0.0093,0.0191,0.0059,0.0007,-0.0042,-0.0001,
6.3050,0.0093,0.0191,0.0059,0.0015,-0.0058,0.0011,
6.3570,0.0093,0.0191,0.0059,0.0015,-0.0058,0.0011,
6.3590,0.0093,0.0191,0.0059,0.0015,-0.0058,0.0011,
6.3600,0.0093,0.0191,0.0059,0.0015,-0.0058,0.0011,
6.3610,0.0093,0.0191,0.0059,-0.0026,-0.0070,-0.0021,
6.3620,0.0070,0.0042,0.0043,-0.0026,-0.0070,-0.0021,
6.4160,0.0070,0.0042,0.0043,-0.0026,-0.0070,-0.0021,
6.4180,0.0070,0.0042,0.0043,-0.0026,-0.0070,-0.0021,
6.4190,0.0070,0.0042,0.0043,-0.0026,-0.0070,-0.0021,
6.4200,0.0070,0.0042,0.0043,-0.0050,-0.0054,-0.0021,
6.4210,0.0148,0.0006,0.0243,-0.0050,-0.0054,-0.0021,
6.4740,0.0148,0.0006,0.0243,-0.0050,-0.0054,-0.0021,
6.4770,0.0148,0.0006,0.0243,-0.0050,-0.0054,-0.0021,
6.4780,0.0148,0.0006,0.0243,-0.0050,-0.0054,-0.0021,
6.4790,0.0148,0.0006,0.0243,-0.0058,-0.0013,-0.0005,
6.4800,0.0191,0.0044,0.0136,-0.0058,-0.0013,-0.0005,
6.5320,0.0191,0.0044,0.0136,-0.0058,-0.0013,-0.0005,
6.5330,0.0191,0.0044,0.0136,-0.0058,-0.0013,-0.0005,
6.5340,0.0191,0.0044,0.0136,-0.0058,-0.0013,-0.0005,
6.5340,0.0191,0.0044,0.0136,-0.0050,0.0032,0.0003,
6.5350,0.0280,-0.0021,0.0069,-0.0050,0.0032,0.0003,
6.5910,0.0280,-0.0021,0.0069,-0.0050,0.0032,0.0003,
6.5930,0.0280,-0.0021,0.0069,-0.0050,0.0032,0.0003,
6.5950,0.0280,-0.0021,0.0069,-0.0050,0.0032,0.0003,
6.5960,0.0280,-0.0021,0.0069,-0.0038,0.0068,0.0007,
6.5970,-0.0015,-0.0071,0.0224,-0.0038,0.0068,0.0007,
6.6500,-0.0015,-0.0071,0.0224,-0.0038,0.0068,0.0007,
6.6520,-0.0015,-0.0071,0.0224,-0.0038,0.0068,0.0007,
6.6530,-0.0015,-0.0071,0.0224,-0.0038,0.0068,0.0007,
6.6540,-0.0015,-0.0071,0.0224,0.0019,0.0105,0.0027,
6.6550,0.0051,-0.0042,-0.0062,0.0019,0.0105,0.0027,
6.7080,0.0051,-0.0042,-0.0062,0.0019,0.0105,0.0027,
6.7100,0.0051,-0.0042,-0.0062,0.0019,0.0105,0.0027,
6.7120,0.0051,-0.0042,-0.0062,0.0019,0.0105,0.0027,
6.7130,0.0051,-0.0042,-0.0062,0.0023,0.0077,0.0019,
6.7140,0.0052,-0.0044,0.0159,0.0023,0.0077,0.0019,
6.7670,0.0052,-0.0044,0.0159,0.0023,0.0077,0.0019,
6.7690,0.0052,-0.0044,0.0159,0.0023,0.0077,0.0019,
6.7700,0.0052,-0.0044,0.0159,0.0023,0.0077,0.0019,
6.7720,0.0052,-0.0044,0.0159,0.0096,0.0089,-0.0001,
6.7730,-0.0023,-0.0245,0.0230,0.0096,0.0089,-0.0001,
6.8260,-0.0023,-0.0245,0.0230,0.0096,0.0089,-0.0001,
6.8280,-0.0023,-0.0245,0.0230,0.0096,0.0089,-0.0001,
6.8290,-0.0023,-0.0245,0.0230,0.0096,0.0089,-0.0001,
6.8310,-0.0023,-0.0245,0.0230,0.0153,0.0036,-0.0042,
6.8320,-0.0257,0.0071,-0.0091,0.0153,0.0036,-0.0042,
6.8840,-0.0257,0.0071,-0.0091,0.0153,0.0036,-0.0042,
6.8860,-0.0257,0.0071,-0.0091,0.0153,0.0036,-0.0042,
6.8880,-0.0257,0.0071,-0.0091,0.0153,0.0036,-0.0042,
6.8890,-0.0257,0.0071,-0.0091,0.0129,-0.0066,-0.0025,
6.8900,-0.0211,0.0031,0.0427,0.0129,-0.0066,-0.0025,
6.9430,-0.0211,0.0031,0.0427,0.0129,-0.0066,-0.0025,
6.9450,-0.0211,0.0031,0.0427,0.0129,-0.0066,-0.0025,
6.9460,-0.0211,0.0031,0.0427,0.0129,-0.0066,-0.0025,
6.9470,0.0180,0.0221,-0.0005,0.0129,-0.0066,-0.0025,
6.9490,0.0180,0.0221,-0.0005,0.0149,-0.0115,0.0031,
7.0010,0.0180,0.0221,-0.0005,0.0149,-0.0115,0.0031,
7.0030,0.0180,0.0221,-0.0005,0.0149,-0.0115,0.0031,
7.0050,0.0180,0.0221,-0.0005,0.0149,-0.0115,0.0031,
7.0060,0.0094,-0.0109,0.0244,0.0149,-0.0115,0.0031,
7.0070,0.0094,-0.0109,0.0244,0.0113,-0.0111,0.0019,
7.0610,0.0094,-0.0109,0.0244,0.0113,-0.0111,0.0019,
7.0630,0.0094,-0.0109,0.0244,0.0113,-0.0111,0.0019,
7.0640,0.0094,-0.0109,0.0244,0.0113,-0.0111,0.0019,
7.0660,0.0238,0.0016,0.0176,0.0113,-0.0111,0.0019,
7.0670,0.0238,0.0016,0.0176,0.0108,-0.0066,0.0011,
7.1190,0.0238,0.0016,0.0176,0.0108,-0.0066,0.0011,
7.1210,0.0238,0.0016,0.0176,0.0108,-0.0066,0.0011,
7.1220,0.0238,0.0016,0.0176,0.0108,-0.0066,0.0011,
7.1230,0.0238,0.0016,0.0176,0.0117,0.0003,-0.0021,
7.1240,0.0215,0.0159,0.0159,0.0117,0.0003,-0.0021,
7.1770,0.0215,0.0159,0.0159,0.0117,0.0003,-0.0021,
7.1790,0.0215,0.0159,0.0159,0.0117,0.0003,-0.0021,
7.1800,0.0215,0.0159,0.0159,0.0117,0.0003,-0.0021,
7.1810,-0.0155,-0.0068,-0.0209,0.0117,0.0003,-0.0021,
7.1820,-0.0155,-0.0068,-0.0209,0.0153,-0.0033,0.0003,
7.2360,-0.0155,-0.0068,-0.0209,0.0153,-0.0033,0.0003,
7.2380,-0.0155,-0.0068,-0.0209,0.0153,-0.0033,0.0003,
7.2390,-0.0155,-0.0068,-0.0209,0.0153,-0.0033,0.0003,
7.2400,-0.0155,-0.0068,-0.0209,0.0133,-0.0001,0.0032,
7.2410,-0.0069,-0.0039,0.0179,0.0133,-0.0001,0.0032,
7.2940,-0.0069,-0.0039,0.0179,0.0133,-0.0001,0.0032,
7.2970,-0.0069,-0.0039,0.0179,0.0133,-0.0001,0.0032,
7.2980,-0.0069,-0.0039,0.0179,0.0133,-0.0001,0.0032,
7.2990,-0.0069,-0.0039,0.0179,0.0145,-0.0050,0.0048,
7.3010,0.0025,-0.0126,0.0712,0.0145,-0.0050,0.0048,
7.3530,0.0025,-0.0126,0.0712,0.0145,-0.0050,0.0048,
7.3550,0.0025,-0.0126,0.0712,0.0145,-0.0050,0.0048,
7.3560,0.0025,-0.0126,0.0712,0.0145,-0.0050,0.0048,
7.3570,-0.0166,-0.0158,0.0643,0.0145,-0.0050,0.0048,
7.3590,-0.0166,-0.0158,0.0643,0.0239,-0.0074,-0.0025,
7.4110,-0.0166,-0.0158,0.0643,0.0239,-0.0074,-0.0025,
7.4130,-0.0166,-0.0158,0.0643,0.0239,-0.0074,-0.0025,
7.4140,-0.0166,-0.0158,0.0643,0.0239,-0.0074,-0.0025,
7.4160,-0.0030,0.0111,0.0346,0.0239,-0.0074,-0.0025,
7.4170,-0.0030,0.0111,0.0346,0.0304,-0.0180,-0.0038,
7.4700,-0.0030,0.0111,0.0346,0.0304,-0.0180,-0.0038,
7.4720,-0.0030,0.0111,0.0346,0.0304,-0.0180,-0.0038,
7.4730,-0.0030,0.0111,0.0346,0.0304,-0.0180,-0.0038,
7.4740,-0.0030,0.0111,0.0346,0.0316,-0.0209,-0.0001,
7.4760,0.0216,0.0185,0.0668,0.0316,-0.0209,-0.0001,
7.5290,0.0216,0.0185,0.0668,0.0316,-0.0209,-0.0001,
7.5310,0.0216,0.0185,0.0668,0.0316,-0.0209,-0.0001,
7.5320,0.0216,0.0185,0.0668,0.0316,-0.0209,-0.0001,
7.5330,0.0369,0.0035,0.0983,0.0316,-0.0209,-0.0001,
7.5350,0.0369,0.0035,0.0983,0.0288,-0.0201,0.0015,
7.5870,0.0369,0.0035,0.0983,0.0288,-0.0201,0.0015,
7.5890,0.0369,0.0035,0.0983,0.0288,-0.0201,0.0015,
7.5900,0.0369,0.0035,0.0983,0.0288,-0.0201,0.0015,
7.5920,0.0369,0.0035,0.0983,0.0345,-0.0184,0.0019,
7.5930,0.0402,0.0112,0.0591,0.0345,-0.0184,0.0019,
7.6460,0.0402,0.0112,0.0591,0.0345,-0.0184,0.0019,
7.6480,0.0402,0.0112,0.0591,0.0345,-0.0184,0.0019,
7.6490,0.0402,0.0112,0.0591,0.0345,-0.0184,0.0019,
7.6500,0.0402,0.0112,0.0591,0.0397,-0.0127,-0.0001,
7.6510,0.0374,0.0292,0.0499,0.0397,-0.0127,-0.0001,
7.7040,0.0374,0.0292,0.0499,0.0397,-0.0127,-0.0001,
7.7070,0.0374,0.0292,0.0499,0.0397,-0.0127,-0.0001,
7.7080,0.0374,0.0292,0.0499,0.0397,-0.0127,-0.0001,
7.7090,0.0374,0.0292,0.0499,0.0349,-0.0009,0.0027,
7.7100,0.0270,0.0447,0.1080,0.0349,-0.0009,0.0027,
7.7630,0.0270,0.0447,0.1080,0.0349,-0.0009,0.0027,
7.7650,0.0270,0.0447,0.1080,0.0349,-0.0009,0.0027,
7.7660,0.0270,0.0447,0.1080,0.0349,-0.0009,0.0027,
7.7670,0.0270,0.0447,0.1080,0.0267,0.0036,0.0019,
7.7690,-0.0488,0.0586,0.1004,0.0267,0.0036,0.0019,
7.8210,-0.0488,0.0586,0.1004,0.0267,0.0036,0.0019,
7.8230,-0.0488,0.0586,0.1004,0.0267,0.0036,0.0019,
7.8240,-0.0488,0.0586,0.1004,0.0267,0.0036,0.0019,
7.8260,-0.0488,0.0586,0.1004,0.0165,-0.0131,-0.0099,
7.8270,0.0037,-0.0546,0.0508,0.0165,-0.0131,-0.0099,
7.8810,-0.0783,-0.1617,-0.1438,0.0165,-0.0131,-0.0099,
7.8830,-0.0783,-0.1617,-0.1438,0.0165,-0.0131,-0.0099,
7.8840,-0.0783,-0.1617,-0.1438,0.0165,-0.0131,-0.0099,
7.8860,-0.0783,-0.1617,-0.1438,0.0165,-0.0131,-0.0099,
7.8870,-0.0783,-0.1617,-0.1438,0.0263,-0.0229,-0.0184,
7.9380,-0.0783,-0.1617,-0.1438,0.0263,-0.0229,-0.0184,
7.9400,-0.0783,-0.1617,-0.1438,0.0263,-0.0229,-0.0184,
7.9410,-0.0783,-0.1617,-0.1438,0.0263,-0.0229,-0.0184,
7.9420,-0.0783,-0.1617,-0.1438,0.0202,-0.0441,-0.0249,
7.9440,0.0794,-0.7723,-0.2874,0.0202,-0.0441,-0.0249,
7.9970,0.0794,-0.7723,-0.2874,0.0202,-0.0441,-0.0249,
7.9990,0.0794,-0.7723,-0.2874,0.0202,-0.0441,-0.0249,
8.0000,0.0794,-0.7723,-0.2874,0.0202,-0.0441,-0.0249,
8.0010,0.0794,-0.7723,-0.2874,0.0495,-0.0388,-0.0469,
8.0020,0.8376,-3.1459,-0.4097,0.0495,-0.0388,-0.0469,
8.0560,0.8376,-3.1459,-0.4097,0.0495,-0.0388,-0.0469,
8.0580,0.8376,-3.1459,-0.4097,0.0495,-0.0388,-0.0469,
8.0590,0.8376,-3.1459,-0.4097,0.0495,-0.0388,-0.0469,
8.0600,0.8376,-3.1459,-0.4097,0.1937,0.0223,-0.1149,
8.0610,0.3111,-5.4601,0.3982,0.1937,0.0223,-0.1149,
8.1140,0.3111,-5.4601,0.3982,0.1937,0.0223,-0.1149,
8.1160,0.3111,-5.4601,0.3982,0.1937,0.0223,-0.1149,
8.1170,0.3111,-5.4601,0.3982,0.1937,0.0223,-0.1149,
8.1180,-0.0579,-1.2088,1.0675,0.1937,0.0223,-0.1149,
8.1200,-0.0579,-1.2088,1.0675,0.5036,-0.0465,-0.0290,
8.1730,-0.0579,-1.2088,1.0675,0.5036,-0.0465,-0.0290,
8.1750,-0.0579,-1.2088,1.0675,0.5036,-0.0465,-0.0290,
8.1760,-0.0579,-1.2088,1.0675,0.5036,-0.0465,-0.0290,
8.1780,-0.0579,-1.2088,1.0675,0.7150,-0.0103,-0.0140,
8.1790,0.5133,0.5192,-0.6867,0.7150,-0.0103,-0.0140,
8.2320,0.5133,0.5192,-0.6867,0.7150,-0.0103,-0.0140,
8.2330,0.5133,0.5192,-0.6867,0.7150,-0.0103,-0.0140,
8.2350,0.5133,0.5192,-0.6867,0.7150,-0.0103,-0.0140,
8.2360,-0.5504,6.9284,-0.8494,0.7150,-0.0103,-0.0140,
8.2380,-0.5504,6.9284,-0.8494,0.6307,0.2536,-0.1153,
8.2900,-0.5504,6.9284,-0.8494,0.6307,0.2536,-0.1153,
8.2920,-0.5504,6.9284,-0.8494,0.6307,0.2536,-0.1153,
8.2930,-0.5504,6.9284,-0.8494,0.6307,0.2536,-0.1153,
8.2940,-0.5504,6.9284,-0.8494,0.2132,0.0830,-0.1259,
8.2960,-3.0534,6.7986,-1.3702,0.2132,0.0830,-0.1259,
8.3490,-3.0534,6.7986,-1.3702,0.2132,0.0830,-0.1259,
8.3510,-3.0534,6.7986,-1.3702,0.2132,0.0830,-0.1259,
8.3520,-3.0534,6.7986,-1.3702,0.2132,0.0830,-0.1259,
8.3530,-3.0534,6.7986,-1.3702,0.3493,-0.2693,0.0406,
8.3550,0.0201,13.2047,-3.0774,0.3493,-0.2693,0.0406,
8.4070,0.0201,13.2047,-3.0774,0.3493,-0.2693,0.0406,
8.4090,0.0201,13.2047,-3.0774,0.3493,-0.2693,0.0406,
8.4100,0.0201,13.2047,-3.0774,0.3493,-0.2693,0.0406,
8.4110,0.0201,13.2047,-3.0774,-0.0836,-0.0603,0.1107,
8.4130,-1.2993,14.1382,-5.9845,-0.0836,-0.0603,0.1107,
8.4660,-1.2993,14.1382,-5.9845,-0.0836,-0.0603,0.1107,
8.4680,-1.2993,14.1382,-5.9845,-0.0836,-0.0603,0.1107,
8.4690,-1.2993,14.1382,-5.9845,-0.0836,-0.0603,0.1107,
8.4700,-1.2993,14.1382,-5.9845,-1.2813,-0.0982,0.1102,
8.4720,0.9395,-4.2845,-1.9165,-1.2813,-0.0982,0.1102,
8.5240,0.9395,-4.2845,-1.9165,-1.2813,-0.0982,0.1102,
8.5270,0.9395,-4.2845,-1.9165,-1.2813,-0.0982,0.1102,
8.5280,0.9395,-4.2845,-1.9165,-1.2813,-0.0982,0.1102,
8.5290,0.9395,-4.2845,-1.9165,-0.8745,-0.1064,0.2752,
8.5310,0.4755,-16.1303,2.1573,-0.8745,-0.1064,0.2752,
8.5830,0.4755,-16.1303,2.1573,-0.8745,-0.1064,0.2752,
8.5850,0.4755,-16.1303,2.1573,-0.8745,-0.1064,0.2752,
8.5870,0.4755,-16.1303,2.1573,-0.8745,-0.1064,0.2752,
8.5880,0.4755,-16.1303,2.1573,0.2682,-0.3405,0.0186,
8.5900,1.0261,-8.1905,1.7951,0.2682,-0.3405,0.0186,
8.6420,1.0261,-8.1905,1.7951,0.2682,-0.3405,0.0186,
8.6440,1.0261,-8.1905,1.7951,0.2682,-0.3405,0.0186,
8.6450,1.0261,-8.1905,1.7951,0.2682,-0.3405,0.0186,
8.6460,1.0261,-8.1905,1.7951,-0.0543,-0.0457,0.0414,
8.6470,0.8339,-5.5574,2.1304,-0.0543,-0.0457,0.0414,
8.7000,0.8339,-5.5574,2.1304,-0.0543,-0.0457,0.0414,
8.7020,0.8339,-5.5574,2.1304,-0.0543,-0.0457,0.0414,
8.7040,0.8339,-5.5574,2.1304,-0.0543,-0.0457,0.0414,
8.7050,0.8339,-5.5574,2.1304,-0.6037,-0.1426,0.0939,
8.7070,0.6033,-13.5660,1.8604,-0.6037,-0.1426,0.0939,
8.7580,0.6033,-13.5660,1.8604,-0.6037,-0.1426,0.0939,
8.7610,0.6033,-13.5660,1.8604,-0.6037,-0.1426,0.0939,
8.7630,0.6033,-13.5660,1.8604,-0.6037,-0.1426,0.0939,
8.7640,0.0917,-8.8989,0.5118,-0.6037,-0.1426,0.0939,
8.7660,0.0917,-8.8989,0.5118,0.1351,-0.0591,0.0687,
8.8170,0.0917,-8.8989,0.5118,0.1351,-0.0591,0.0687,
8.8190,0.0917,-8.8989,0.5118,0.1351,-0.0591,0.0687,
8.8200,0.0917,-8.8989,0.5118,0.1351,-0.0591,0.0687,
8.8210,0.0917,-8.8989,0.5118,0.2984,-0.3702,0.0235,
8.8230,-1.3145,-6.8940,0.6935,0.2984,-0.3702,0.0235,
8.8750,-1.3145,-6.8940,0.6935,0.2984,-0.3702,0.0235,
8.8770,-1.3145,-6.8940,0.6935,0.2984,-0.3702,0.0235,
8.8790,-1.3145,-6.8940,0.6935,0.2984,-0.3702,0.0235,
8.8800,-1.3145,-6.8940,0.6935,2.4156,0.0972,-0.0176,
8.8810,0.4240,28.5427,-12.6969,2.4156,0.0972,-0.0176,
8.9350,0.4240,28.5427,-12.6969,2.4156,0.0972,-0.0176,
8.9380,0.4240,28.5427,-12.6969,2.4156,0.0972,-0.0176,
8.9410,0.4240,28.5427,-12.6969,2.4156,0.0972,-0.0176,
8.9420,0.4240,28.5427,-12.6969,-0.5055,-0.4122,-0.0254,
8.9440,0.0691,9.8576,0.9625,-0.5055,-0.4122,-0.0254,
8.9930,0.0691,9.8576,0.9625,-0.5055,-0.4122,-0.0254,
8.9940,0.0691,9.8576,0.9625,-0.5055,-0.4122,-0.0254,
8.9960,0.0691,9.8576,0.9625,-0.5055,-0.4122,-0.0254,
8.9970,0.0691,9.8576,0.9625,-0.8203,0.3351,0.0166,
8.9990,0.0924,-1.2629,0.2601,-0.8203,0.3351,0.0166,
9.0510,0.0924,-1.2629,0.2601,-0.8203,0.3351,0.0166,
9.0530,0.0924,-1.2629,0.2601,-0.8203,0.3351,0.0166,
9.0540,0.0924,-1.2629,0.2601,-0.8203,0.3351,0.0166,
9.0560,0.0924,-1.2629,0.2601,-0.5043,-0.0453,0.0756,
9.0590,-0.3015,-5.4402,1.1468,-0.5043,-0.0453,0.0756,
9.1100,-0.3015,-5.4402,1.1468,-0.5043,-0.0453,0.0756,
9.1120,-0.3015,-5.4402,1.1468,-0.5043,-0.0453,0.0756,
9.1140,-0.3015,-5.4402,1.1468,-0.5043,-0.0453,0.0756,
9.1150,-0.3015,-5.4402,1.1468,-0.0038,0.1555,-0.0958,
9.1160,-0.1703,-2.4289,0.5623,-0.0038,0.1555,-0.0958,
9.1680,-0.1703,-2.4289,0.5623,-0.0038,0.1555,-0.0958,
9.1700,-0.1703,-2.4289,0.5623,-0.0038,0.1555,-0.0958,
9.1710,-0.1703,-2.4289,0.5623,-0.0038,0.1555,-0.0958,
9.1720,-0.1703,-2.4289,0.5623,0.3578,0.2870,0.0414,
9.1740,0.3362,3.4523,-0.9153,0.3578,0.2870,0.0414,
9.2270,0.3362,3.4523,-0.9153,0.3578,0.2870,0.0414,
9.2290,0.3362,3.4523,-0.9153,0.3578,0.2870,0.0414,
9.2300,0.3362,3.4523,-0.9153,0.3578,0.2870,0.0414,
9.2310,0.3362,3.4523,-0.9153,-0.3495,0.0117,0.0178,
9.2330,0.0359,-0.8042,1.2231,-0.3495,0.0117,0.0178,
9.2860,0.0359,-0.8042,1.2231,-0.3495,0.0117,0.0178,
9.2880,0.0359,-0.8042,1.2231,-0.3495,0.0117,0.0178,
9.2890,0.0359,-0.8042,1.2231,-0.3495,0.0117,0.0178,
9.2900,0.0359,-0.8042,1.2231,-0.1374,0.1661,0.0089,
9.2910,0.1337,-0.6158,0.0730,-0.1374,0.1661,0.0089,
9.3440,0.1337,-0.6158,0.0730,-0.1374,0.1661,0.0089,
9.3460,0.1337,-0.6158,0.0730,-0.1374,0.1661,0.0089,
9.3480,0.1337,-0.6158,0.0730,-0.1374,0.1661,0.0089,
9.3490,0.0038,0.2913,0.0621,-0.1374,0.1661,0.0089,
9.3510,0.0038,0.2913,0.0621,-0.0820,0.0516,0.0260,
9.4030,0.0038,0.2913,0.0621,-0.0820,0.0516,0.0260,
9.4040,0.0038,0.2913,0.0621,-0.0820,0.0516,0.0260,
9.4050,0.0038,0.2913,0.0621,-0.0820,0.0516,0.0260,
9.4050,0.0038,0.2913,0.0621,-0.1227,0.0138,0.0011,
9.4060,0.0628,-0.2148,0.3347,-0.1227,0.0138,0.0011,
9.4620,0.0628,-0.2148,0.3347,-0.1227,0.0138,0.0011,
9.4630,0.0628,-0.2148,0.3347,-0.1227,0.0138,0.0011,
9.4640,0.0628,-0.2148,0.3347,-0.1227,0.0138,0.0011,
9.4640,-0.0284,0.0513,0.1392,-0.1227,0.0138,0.0011,
9.4640,-0.0284,0.0513,0.1392,-0.0877,-0.0270,-0.0062,
9.5200,-0.0284,0.0513,0.1392,-0.0877,-0.0270,-0.0062,
9.5220,-0.0284,0.0513,0.1392,-0.0877,-0.0270,-0.0062,
9.5230,-0.0284,0.0513,0.1392,-0.0877,-0.0270,-0.0062,
9.5240,-0.0284,0.0513,0.1392,-0.1060,-0.0872,-0.0135,
9.5260,0.0778,-0.0200,0.0817,-0.1060,-0.0872,-0.0135,
9.5780,0.0778,-0.0200,0.0817,-0.1060,-0.0872,-0.0135,
9.5810,0.0778,-0.0200,0.0817,-0.1060,-0.0872,-0.0135,
9.5830,0.0778,-0.0200,0.0817,-0.1060,-0.0872,-0.0135,
9.5840,0.0778,-0.0200,0.0817,-0.0795,-0.0856,0.0052,
9.5850,-0.0285,-0.3242,-0.0323,-0.0795,-0.0856,0.0052,
9.6370,-0.0285,-0.3242,-0.0323,-0.0795,-0.0856,0.0052,
9.6390,-0.0285,-0.3242,-0.0323,-0.0795,-0.0856,0.0052,
9.6410,-0.0285,-0.3242,-0.0323,-0.0795,-0.0856,0.0052,
9.6420,-0.0285,-0.3242,-0.0323,-0.0311,-0.0726,0.0089,
9.6430,0.0587,0.0934,0.0167,-0.0311,-0.0726,0.0089,
9.6960,0.0587,0.0934,0.0167,-0.0311,-0.0726,0.0089,
9.6980,0.0587,0.0934,0.0167,-0.0311,-0.0726,0.0089,
9.7000,0.0587,0.0934,0.0167,-0.0311,-0.0726,0.0089,
9.7010,0.0481,-0.0358,0.2241,-0.0311,-0.0726,0.0089,
9.7030,0.0481,-0.0358,0.2241,-0.0641,-0.0502,-0.0135,
9.7540,0.0481,-0.0358,0.2241,-0.0641,-0.0502,-0.0135,
9.7570,0.0481,-0.0358,0.2241,-0.0641,-0.0502,-0.0135,
9.7580,0.0481,-0.0358,0.2241,-0.0641,-0.0502,-0.0135,
9.7590,0.0481,-0.0358,0.2241,-0.0571,-0.0327,-0.0123,
9.7600,0.1505,-0.0131,0.2368,-0.0571,-0.0327,-0.0123,
9.8130,0.1505,-0.0131,0.2368,-0.0571,-0.0327,-0.0123,
9.8150,0.1505,-0.0131,0.2368,-0.0571,-0.0327,-0.0123,
9.8160,0.1505,-0.0131,0.2368,-0.0571,-0.0327,-0.0123,
9.8170,0.1505,-0.0131,0.2368,-0.0347,0.0170,-0.0221,
9.8180,0.3651,-0.2673,0.0121,-0.0347,0.0170,-0.0221,
9.8710,0.3651,-0.2673,0.0121,-0.0347,0.0170,-0.0221,
9.8740,0.3651,-0.2673,0.0121,-0.0347,0.0170,-0.0221,
9.8750,0.3651,-0.2673,0.0121,-0.0347,0.0170,-0.0221,
9.8760,0.3651,-0.2673,0.0121,0.0316,0.1054,-0.0416,
9.8770,0.4825,-0.3243,-0.2789,0.0316,0.1054,-0.0416,
9.9300,0.4825,-0.3243,-0.2789,0.0316,0.1054,-0.0416,
9.9320,0.4825,-0.3243,-0.2789,0.0316,0.1054,-0.0416,
9.9330,0.4825,-0.3243,-0.2789,0.0316,0.1054,-0.0416,
9.9340,-0.1669,0.1531,-0.3868,0.0316,0.1054,-0.0416,
9.9360,-0.1669,0.1531,-0.3868,0.0845,0.2231,-0.0771,
9.9880,-0.1669,0.1531,-0.3868,0.0845,0.2231,-0.0771,
9.9900,-0.1669,0.1531,-0.3868,0.0845,0.2231,-0.0771,
9.9920,-0.1669,0.1531,-0.3868,0.0845,0.2231,-0.0771,
9.9930,-0.1669,0.1531,-0.3868,0.0626,0.1811,-0.0746,
9.9940,-0.4310,0.0112,-0.0336,0.0626,0.1811,-0.0746,
10.0470,-0.4310,0.0112,-0.0336,0.0626,0.1811,-0.0746,
10.0490,-0.4310,0.0112,-0.0336,0.0626,0.1811,-0.0746,
10.0500,-0.4310,0.0112,-0.0336,0.0626,0.1811,-0.0746,
10.0510,-0.4310,0.0112,-0.0336,0.0361,0.0659,-0.0327,
10.0520,-0.0506,0.0762,0.1746,0.0361,0.0659,-0.0327,
10.1060,-0.0506,0.0762,0.1746,0.0361,0.0659,-0.0327,
10.1080,-0.0506,0.0762,0.1746,0.0361,0.0659,-0.0327,
10.1090,-0.0506,0.0762,0.1746,0.0361,0.0659,-0.0327,
10.1100,-0.0506,0.0762,0.1746,0.0031,0.0504,-0.0013,
10.1110,0.1107,-0.0494,0.1169,0.0031,0.0504,-0.0013,
10.1640,0.1107,-0.0494,0.1169,0.0031,0.0504,-0.0013,
10.1670,0.1107,-0.0494,0.1169,0.0031,0.0504,-0.0013,
10.1680,0.1107,-0.0494,0.1169,0.0031,0.0504,-0.0013,
10.1690,0.1107,-0.0494,0.1169,0.0186,0.0553,-0.0058,
10.1700,0.0461,-0.0166,-0.0651,0.0186,0.0553,-0.0058,
10.2230,0.0461,-0.0166,-0.0651,0.0186,0.0553,-0.0058,
10.2250,0.0461,-0.0166,-0.0651,0.0186,0.0553,-0.0058,
10.2270,0.0461,-0.0166,-0.0651,0.0186,0.0553,-0.0058,
10.2280,0.0461,-0.0166,-0.0651,0.0271,0.0545,-0.0127,
10.2300,-0.1413,0.0084,-0.1154,0.0271,0.0545,-0.0127,
10.2810,-0.1413,0.0084,-0.1154,0.0271,0.0545,-0.0127,
10.2830,-0.1413,0.0084,-0.1154,0.0271,0.0545,-0.0127,
10.2840,-0.1413,0.0084,-0.1154,0.0271,0.0545,-0.0127,
10.2860,-0.0990,0.0484,-0.0345,0.0271,0.0545,-0.0127,
10.2870,-0.0990,0.0484,-0.0345,0.0239,0.0101,-0.0017,
10.3400,-0.0990,0.0484,-0.0345,0.0239,0.0101,-0.0017,
10.3420,-0.0990,0.0484,-0.0345,0.0239,0.0101,-0.0017,
10.3440,-0.0990,0.0484,-0.0345,0.0239,0.0101,-0.0017,
10.3460,-0.0990,0.0484,-0.0345,0.0096,-0.0209,0.0121,
10.3470,-0.0243,-0.0133,0.0345,0.0096,-0.0209,0.0121,
10.4000,-0.0243,-0.0133,0.0345,0.0096,-0.0209,0.0121,
10.4020,-0.0243,-0.0133,0.0345,0.0096,-0.0209,0.0121,
10.4030,-0.0243,-0.0133,0.0345,0.0096,-0.0209,0.0121,
10.4040,-0.0243,-0.0133,0.0345,0.0064,-0.0306,0.0150,
10.4060,0.0134,-0.0078,-0.0082,0.0064,-0.0306,0.0150,
10.4570,0.0134,-0.0078,-0.0082,0.0064,-0.0306,0.0150,
10.4590,0.0134,-0.0078,-0.0082,0.0064,-0.0306,0.0150,
10.4600,0.0134,-0.0078,-0.0082,0.0064,-0.0306,0.0150,
10.4620,0.0072,-0.0007,-0.0319,0.0064,-0.0306,0.0150,
10.4630,0.0072,-0.0007,-0.0319,0.0092,-0.0282,0.0048,
10.5160,0.0072,-0.0007,-0.0319,0.0092,-0.0282,0.0048,
10.5180,0.0072,-0.0007,-0.0319,0.0092,-0.0282,0.0048,
10.5190,0.0072,-0.0007,-0.0319,0.0092,-0.0282,0.0048,
10.5200,0.0072,-0.0007,-0.0319,0.0121,-0.0282,-0.0009,
10.5220,0.0138,-0.0285,-0.0033,0.0121,-0.0282,-0.0009,
10.5750,0.0138,-0.0285,-0.0033,0.0121,-0.0282,-0.0009,
10.5770,0.0138,-0.0285,-0.0033,0.0121,-0.0282,-0.0009,
10.5780,0.0138,-0.0285,-0.0033,0.0121,-0.0282,-0.0009,
10.5790,0.0192,-0.0428,0.0007,0.0121,-0.0282,-0.0009,
10.5800,0.0192,-0.0428,0.0007,0.0222,-0.0225,-0.0054,
10.6330,0.0192,-0.0428,0.0007,0.0222,-0.0225,-0.0054,
10.6360,0.0192,-0.0428,0.0007,0.0222,-0.0225,-0.0054,
10.6370,0.0192,-0.0428,0.0007,0.0222,-0.0225,-0.0054,
10.6380,0.0192,-0.0428,0.0007,0.0353,-0.0160,-0.0127,
10.6390,0.0136,-0.0255,-0.0549,0.0353,-0.0160,-0.0127,
10.6920,0.0136,-0.0255,-0.0549,0.0353,-0.0160,-0.0127,
10.6940,0.0136,-0.0255,-0.0549,0.0353,-0.0160,-0.0127,
10.6950,0.0136,-0.0255,-0.0549,0.0353,-0.0160,-0.0127,
10.6970,0.0136,-0.0255,-0.0549,0.0394,-0.0135,-0.0164,
10.6980,0.0372,0.0168,-0.0164,0.0394,-0.0135,-0.0164,
10.7500,0.0372,0.0168,-0.0164,0.0394,-0.0135,-0.0164,
10.7520,0.0372,0.0168,-0.0164,0.0394,-0.0135,-0.0164,
10.7540,0.0372,0.0168,-0.0164,0.0394,-0.0135,-0.0164,
10.7550,0.0372,0.0168,-0.0164,0.0336,-0.0086,-0.0152,
10.7560,-0.0471,0.0608,-0.0088,0.0336,-0.0086,-0.0152,
10.8080,-0.0471,0.0608,-0.0088,0.0336,-0.0086,-0.0152,
10.8100,-0.0471,0.0608,-0.0088,0.0336,-0.0086,-0.0152,
10.8120,-0.0471,0.0608,-0.0088,0.0336,-0.0086,-0.0152,
10.8130,0.0330,-0.0043,0.0043,0.0336,-0.0086,-0.0152,
10.8150,0.0330,-0.0043,0.0043,0.0206,-0.0188,-0.0099,
10.8670,0.0330,-0.0043,0.0043,0.0206,-0.0188,-0.0099,
10.8690,0.0330,-0.0043,0.0043,0.0206,-0.0188,-0.0099,
10.8700,0.0330,-0.0043,0.0043,0.0206,-0.0188,-0.0099,
10.8720,0.0330,-0.0043,0.0043,0.0133,-0.0127,-0.0095,
10.8730,0.0041,0.0377,0.0083,0.0133,-0.0127,-0.0095,
10.9260,0.0041,0.0377,0.0083,0.0133,-0.0127,-0.0095,
10.9280,0.0041,0.0377,0.0083,0.0133,-0.0127,-0.0095,
10.9290,0.0041,0.0377,0.0083,0.0133,-0.0127,-0.0095,
10.9310,0.0041,0.0377,0.0083,0.0052,-0.0103,-0.0074,
10.9320,0.0034,-0.0159,-0.0090,0.0052,-0.0103,-0.0074,
10.9850,0.0034,-0.0159,-0.0090,0.0052,-0.0103,-0.0074,
10.9870,0.0034,-0.0159,-0.0090,0.0052,-0.0103,-0.0074,
10.9880,0.0034,-0.0159,-0.0090,0.0052,-0.0103,-0.0074,
10.9900,0.0034,-0.0159,-0.0090,0.0035,-0.0119,-0.0062,
10.9910,0.0421,0.0164,0.0101,0.0035,-0.0119,-0.0062,
11.0430,0.0421,0.0164,0.0101,0.0035,-0.0119,-0.0062,
11.0450,0.0421,0.0164,0.0101,0.0035,-0.0119,-0.0062,
11.0460,0.0421,0.0164,0.0101,0.0035,-0.0119,-0.0062,
11.0480,0.0421,0.0164,0.0101,0.0003,-0.0001,-0.0050,
11.0490,-0.0274,0.0127,-0.0143,0.0003,-0.0001,-0.0050,
11.1010,-0.0274,0.0127,-0.0143,0.0003,-0.0001,-0.0050,
11.1030,-0.0274,0.0127,-0.0143,0.0003,-0.0001,-0.0050,
11.1050,-0.0274,0.0127,-0.0143,0.0003,-0.0001,-0.0050,
11.1060,-0.0274,0.0127,-0.0143,-0.0046,-0.0025,-0.0017,
11.1080,0.0256,-0.0089,-0.0272,-0.0046,-0.0025,-0.0017,
11.1600,0.0256,-0.0089,-0.0272,-0.0046,-0.0025,-0.0017,
11.1630,0.0256,-0.0089,-0.0272,-0.0046,-0.0025,-0.0017,
11.1640,0.0256,-0.0089,-0.0272,-0.0046,-0.0025,-0.0017,
11.1650,-0.0166,0.0329,-0.0293,-0.0046,-0.0025,-0.0017,
11.1660,-0.0166,0.0329,-0.0293,-0.0034,0.0028,0.0003,
11.2190,-0.0166,0.0329,-0.0293,-0.0034,0.0028,0.0003,
11.2210,-0.0166,0.0329,-0.0293,-0.0034,0.0028,0.0003,
11.2220,-0.0166,0.0329,-0.0293,-0.0034,0.0028,0.0003,
11.2230,-0.0166,0.0329,-0.0293,-0.0071,0.0064,0.0056,
11.2240,0.0108,-0.0335,-0.0335,-0.0071,0.0064,0.0056,
11.2770,0.0108,-0.0335,-0.0335,-0.0071,0.0064,0.0056,
11.2790,0.0108,-0.0335,-0.0335,-0.0071,0.0064,0.0056,
11.2800,0.0108,-0.0335,-0.0335,-0.0071,0.0064,0.0056,
11.2820,0.0108,-0.0335,-0.0335,-0.0009,0.0068,0.0060,
11.2830,0.0216,0.0088,-0.0065,-0.0009,0.0068,0.0060,
11.3360,0.0216,0.0088,-0.0065,-0.0009,0.0068,0.0060,
11.3380,0.0216,0.0088,-0.0065,-0.0009,0.0068,0.0060,
11.3390,0.0216,0.0088,-0.0065,-0.0009,0.0068,0.0060,
11.3400,0.0216,0.0088,-0.0065,-0.0018,0.0186,-0.0009,
11.3420,-0.0028,-0.0008,0.0377,-0.0018,0.0186,-0.0009,
11.3940,-0.0028,-0.0008,0.0377,-0.0018,0.0186,-0.0009,
11.3970,-0.0028,-0.0008,0.0377,-0.0018,0.0186,-0.0009,
11.3980,-0.0028,-0.0008,0.0377,-0.0018,0.0186,-0.0009,
11.4010,-0.0028,-0.0008,0.0377,-0.0054,0.0186,-0.0066,
11.4040,-0.0031,0.0225,0.0098,-0.0054,0.0186,-0.0066,
11.4520,-0.0031,0.0225,0.0098,-0.0054,0.0186,-0.0066,
11.4530,-0.0031,0.0225,0.0098,-0.0054,0.0186,-0.0066,
11.4540,-0.0031,0.0225,0.0098,-0.0054,0.0186,-0.0066,
11.4540,-0.0031,0.0225,0.0098,-0.0116,0.0142,-0.0050,
11.4550,-0.0045,0.0029,0.0194,-0.0116,0.0142,-0.0050,
11.5120,-0.0045,0.0029,0.0194,-0.0116,0.0142,-0.0050,
11.5130,-0.0045,0.0029,0.0194,-0.0116,0.0142,-0.0050,
11.5130,-0.0045,0.0029,0.0194,-0.0116,0.0142,-0.0050,
11.5140,-0.0045,0.0029,0.0194,-0.0116,0.0121,-0.0046,
11.5140,0.0042,-0.0239,0.0284,-0.0116,0.0121,-0.0046,
11.5710,0.0042,-0.0239,0.0284,-0.0116,0.0121,-0.0046,
11.5720,0.0042,-0.0239,0.0284,-0.0116,0.0121,-0.0046,
11.5720,0.0042,-0.0239,0.0284,-0.0116,0.0121,-0.0046,
11.5720,0.0042,-0.0239,0.0284,-0.0071,0.0076,-0.0099,
11.5730,-0.0339,0.0162,-0.0019,-0.0071,0.0076,-0.0099,
11.6280,-0.0339,0.0162,-0.0019,-0.0071,0.0076,-0.0099,
11.6310,-0.0339,0.0162,-0.0019,-0.0071,0.0076,-0.0099,
11.6320,-0.0339,0.0162,-0.0019,-0.0071,0.0076,-0.0099,
11.6330,-0.0339,0.0162,-0.0019,-0.0115,-0.0062,-0.0058,
11.6340,-0.0195,-0.0090,0.0418,-0.0115,-0.0062,-0.0058,
11.6870,-0.0195,-0.0090,0.0418,-0.0115,-0.0062,-0.0058,
11.6890,-0.0195,-0.0090,0.0418,-0.0115,-0.0062,-0.0058,
11.6900,-0.0195,-0.0090,0.0418,-0.0115,-0.0062,-0.0058,
11.6920,-0.0195,-0.0090,0.0418,-0.0156,-0.0103,0.0003,
11.6930,0.0317,0.0160,0.0159,-0.0156,-0.0103,0.0003,
11.7460,0.0317,0.0160,0.0159,-0.0156,-0.0103,0.0003,
11.7480,0.0317,0.0160,0.0159,-0.0156,-0.0103,0.0003,
11.7490,0.0317,0.0160,0.0159,-0.0156,-0.0103,0.0003,
11.7500,0.0317,0.0160,0.0159,-0.0197,-0.0078,0.0036,
11.7510,0.0293,-0.0155,0.0251,-0.0197,-0.0078,0.0036,
11.8040,0.0293,-0.0155,0.0251,-0.0197,-0.0078,0.0036,
11.8070,0.0293,-0.0155,0.0251,-0.0197,-0.0078,0.0036,
11.8080,0.0293,-0.0155,0.0251,-0.0197,-0.0078,0.0036,
11.8090,0.0293,-0.0155,0.0251,-0.0124,-0.0050,0.0019,
11.8100,0.0340,-0.0215,0.0187,-0.0124,-0.0050,0.0019,
11.8630,0.0340,-0.0215,0.0187,-0.0124,-0.0050,0.0019,
11.8650,0.0340,-0.0215,0.0187,-0.0124,-0.0050,0.0019,
11.8670,0.0340,-0.0215,0.0187,-0.0124,-0.0050,0.0019,
11.8680,0.0340,-0.0215,0.0187,-0.0115,0.0036,-0.0001,
11.8690,0.0222,-0.0067,0.0294,-0.0115,0.0036,-0.0001,
11.9210,0.0222,-0.0067,0.0294,-0.0115,0.0036,-0.0001,
11.9240,0.0222,-0.0067,0.0294,-0.0115,0.0036,-0.0001,
11.9250,0.0222,-0.0067,0.0294,-0.0115,0.0036,-0.0001,
11.9260,0.0222,-0.0067,0.0294,-0.0054,0.0028,-0.0001,
11.9270,0.0003,-0.0207,0.0045,-0.0054,0.0028,-0.0001,
11.9800,0.0003,-0.0207,0.0045,-0.0054,0.0028,-0.0001,
11.9820,0.0003,-0.0207,0.0045,-0.0054,0.0028,-0.0001,
11.9830,0.0003,-0.0207,0.0045,-0.0054,0.0028,-0.0001,
11.9850,0.0003,-0.0207,0.0045,-0.0026,0.0060,-0.0030,
11.9870,0.0041,0.0170,-0.0104,-0.0026,0.0060,-0.0030,
12.0380,0.0041,0.0170,-0.0104,-0.0026,0.0060,-0.0030,
12.0410,0.0041,0.0170,-0.0104,-0.0026,0.0060,-0.0030,
12.0420,0.0041,0.0170,-0.0104,-0.0026,0.0060,-0.0030,
12.0430,0.0041,0.0170,-0.0104,-0.0095,-0.0009,-0.0013,
12.0440,-0.0275,0.0008,0.0121,-0.0095,-0.0009,-0.0013,
12.0970,-0.0275,0.0008,0.0121,-0.0095,-0.0009,-0.0013,
12.0990,-0.0275,0.0008,0.0121,-0.0095,-0.0009,-0.0013,
12.1000,-0.0275,0.0008,0.0121,-0.0095,-0.0009,-0.0013,
12.1020,-0.0275,0.0008,0.0121,-0.0042,-0.0082,0.0007,
12.1030,-0.0049,0.0017,0.0075,-0.0042,-0.0082,0.0007,
12.1560,-0.0049,0.0017,0.0075,-0.0042,-0.0082,0.0007,
12.1580,-0.0049,0.0017,0.0075,-0.0042,-0.0082,0.0007,
12.1590,-0.0049,0.0017,0.0075,-0.0042,-0.0082,0.0007,
12.1600,-0.0049,0.0017,0.0075,0.0015,-0.0115,0.0019,
12.1620,0.0354,-0.0098,0.0138,0.0015,-0.0115,0.0019,
12.2140,0.0354,-0.0098,0.0138,0.0015,-0.0115,0.0019,
12.2170,0.0354,-0.0098,0.0138,0.0015,-0.0115,0.0019,
12.2200,0.0354,-0.0098,0.0138,0.0015,-0.0115,0.0019,
12.2220,0.0196,0.0076,0.0321,0.0015,-0.0115,0.0019,
12.2260,0.0196,0.0076,0.0321,0.0072,-0.0017,-0.0001,
12.2750,-0.0106,0.0031,0.0021,0.0072,-0.0017,-0.0001,
12.2760,-0.0106,0.0031,0.0021,0.0072,-0.0017,-0.0001,
12.2770,-0.0106,0.0031,0.0021,0.0072,-0.0017,-0.0001,
12.2780,-0.0106,0.0031,0.0021,0.0072,-0.0017,-0.0001,
12.2780,-0.0106,0.0031,0.0021,0.0052,0.0011,-0.0021,
12.3310,-0.0106,0.0031,0.0021,0.0052,0.0011,-0.0021,
12.3320,-0.0106,0.0031,0.0021,0.0052,0.0011,-0.0021,
12.3330,-0.0106,0.0031,0.0021,0.0052,0.0011,-0.0021,
12.3330,-0.0106,0.0031,0.0021,0.0019,-0.0033,0.0015,
12.3330,0.0213,0.0142,0.0027,0.0019,-0.0033,0.0015,
12.3900,0.0213,0.0142,0.0027,0.0019,-0.0033,0.0015,
12.3920,0.0213,0.0142,0.0027,0.0019,-0.0033,0.0015,
12.3930,0.0213,0.0142,0.0027,0.0019,-0.0033,0.0015,
12.3940,0.0213,0.0142,0.0027,0.0007,0.0020,-0.0001,
12.3960,0.0053,-0.0150,0.0241,0.0007,0.0020,-0.0001,
12.4490,0.0053,-0.0150,0.0241,0.0007,0.0020,-0.0001,
12.4510,0.0053,-0.0150,0.0241,0.0007,0.0020,-0.0001,
12.4530,0.0053,-0.0150,0.0241,0.0007,0.0020,-0.0001,
12.4540,0.0053,-0.0150,0.0241,0.0043,0.0036,-0.0034,
12.4550,-0.0010,0.0093,0.0209,0.0043,0.0036,-0.0034,
12.5070,-0.0010,0.0093,0.0209,0.0043,0.0036,-0.0034,
12.5080,-0.0010,0.0093,0.0209,0.0043,0.0036,-0.0034,
12.5100,-0.0010,0.0093,0.0209,0.0043,0.0036,-0.0034,
12.5110,-0.0010,0.0093,0.0209,0.0052,-0.0025,-0.0025,
12.5120,-0.0107,0.0004,0.0282,0.0052,-0.0025,-0.0025,
12.5660,-0.0107,0.0004,0.0282,0.0052,-0.0025,-0.0025,
12.5680,-0.0107,0.0004,0.0282,0.0052,-0.0025,-0.0025,
12.5690,-0.0107,0.0004,0.0282,0.0052,-0.0025,-0.0025,
12.5710,-0.0107,0.0004,0.0282,0.0023,0.0011,0.0003,
12.5730,0.0129,0.0218,0.0291,0.0023,0.0011,0.0003,
12.6260,0.0129,0.0218,0.0291,0.0023,0.0011,0.0003,
12.6280,0.0129,0.0218,0.0291,0.0023,0.0011,0.0003,
12.6300,0.0129,0.0218,0.0291,0.0023,0.0011,0.0003,
12.6310,0.0129,0.0218,0.0291,-0.0009,0.0072,-0.0013,
12.6320,0.0171,0.0066,0.0159,-0.0009,0.0072,-0.0013,
12.6840,0.0171,0.0066,0.0159,-0.0009,0.0072,-0.0013,
12.6860,0.0171,0.0066,0.0159,-0.0009,0.0072,-0.0013,
12.6870,0.0171,0.0066,0.0159,-0.0009,0.0072,-0.0013,
12.6890,0.0171,0.0066,0.0159,-0.0062,0.0142,-0.0034,
12.6900,-0.0106,0.0005,0.0075,-0.0062,0.0142,-0.0034,
12.7420,-0.0106,0.0005,0.0075,-0.0062,0.0142,-0.0034,
12.7440,-0.0106,0.0005,0.0075,-0.0062,0.0142,-0.0034,
12.7460,-0.0106,0.0005,0.0075,-0.0062,0.0142,-0.0034,
12.7470,-0.0106,0.0005,0.0075,-0.0075,0.0089,-0.0013,
12.7480,0.0038,0.0147,0.0290,-0.0075,0.0089,-0.0013,
12.8000,0.0038,0.0147,0.0290,-0.0075,0.0089,-0.0013,
12.8020,0.0038,0.0147,0.0290,-0.0075,0.0089,-0.0013,
12.8030,0.0038,0.0147,0.0290,-0.0075,0.0089,-0.0013,
12.8040,0.0038,0.0147,0.0290,-0.0087,0.0081,-0.0009,
12.8060,-0.0217,-0.0196,0.0445,-0.0087,0.0081,-0.0009,
12.8590,-0.0225,0.0012,-0.0037,-0.0087,0.0081,-0.0009,
12.8620,-0.0225,0.0012,-0.0037,-0.0087,0.0081,-0.0009,
12.8630,-0.0225,0.0012,-0.0037,-0.0087,0.0081,-0.0009,
12.8640,-0.0225,0.0012,-0.0037,-0.0087,0.0081,-0.0009,
12.8660,-0.0225,0.0012,-0.0037,-0.0067,0.0081,-0.0021,
12.9180,0.0111,-0.0105,0.0046,-0.0067,0.0081,-0.0021,
12.9200,0.0111,-0.0105,0.0046,-0.0067,0.0081,-0.0021,
12.9210,0.0111,-0.0105,0.0046,-0.0067,0.0081,-0.0021,
12.9220,0.0111,-0.0105,0.0046,-0.0067,0.0081,-0.0021,
12.9230,0.0111,-0.0105,0.0046,-0.0050,-0.0033,-0.0034,
12.9760,0.0111,-0.0105,0.0046,-0.0050,-0.0033,-0.0034,
12.9780,0.0111,-0.0105,0.0046,-0.0050,-0.0033,-0.0034,
12.9790,0.0111,-0.0105,0.0046,-0.0050,-0.0033,-0.0034,
12.9800,0.0104,0.0197,0.0171,-0.0050,-0.0033,-0.0034,
12.9810,0.0104,0.0197,0.0171,-0.0018,-0.0046,-0.0017,
13.0340,0.0104,0.0197,0.0171,-0.0018,-0.0046,-0.0017,
13.0370,0.0104,0.0197,0.0171,-0.0018,-0.0046,-0.0017,
13.0380,0.0104,0.0197,0.0171,-0.0018,-0.0046,-0.0017,
13.0390,0.0104,0.0197,0.0171,-0.0038,-0.0050,-0.0009,
13.0400,0.0031,-0.0005,0.0130,-0.0038,-0.0050,-0.0009,
13.0930,0.0031,-0.0005,0.0130,-0.0038,-0.0050,-0.0009,
13.0960,0.0031,-0.0005,0.0130,-0.0038,-0.0050,-0.0009,
13.0970,0.0031,-0.0005,0.0130,-0.0038,-0.0050,-0.0009,
13.0980,0.0031,-0.0005,0.0130,-0.0046,-0.0042,-0.0009,
13.1000,0.0227,-0.0008,0.0190,-0.0046,-0.0042,-0.0009,
13.1520,0.0227,-0.0008,0.0190,-0.0046,-0.0042,-0.0009,
13.1540,0.0227,-0.0008,0.0190,-0.0046,-0.0042,-0.0009,
13.1560,0.0227,-0.0008,0.0190,-0.0046,-0.0042,-0.0009,
13.1570,0.0227,-0.0008,0.0190,-0.0042,-0.0021,0.0015,
13.1590,0.0154,0.0002,0.0238,-0.0042,-0.0021,0.0015,
13.2100,0.0154,0.0002,0.0238,-0.0042,-0.0021,0.0015,
13.2130,0.0154,0.0002,0.0238,-0.0042,-0.0021,0.0015,
13.2140,0.0154,0.0002,0.0238,-0.0042,-0.0021,0.0015,
13.2150,0.0154,0.0002,0.0238,-0.0042,0.0036,-0.0001,
13.2170,0.0077,0.0168,-0.0091,-0.0042,0.0036,-0.0001,
13.2690,0.0077,0.0168,-0.0091,-0.0042,0.0036,-0.0001,
13.2720,0.0077,0.0168,-0.0091,-0.0042,0.0036,-0.0001,
13.2730,0.0077,0.0168,-0.0091,-0.0042,0.0036,-0.0001,
13.2740,0.0077,0.0168,-0.0091,-0.0111,0.0007,0.0015,
13.2750,0.0074,0.0075,0.0048,-0.0111,0.0007,0.0015,
13.3270,0.0074,0.0075,0.0048,-0.0111,0.0007,0.0015,
13.3290,0.0074,0.0075,0.0048,-0.0111,0.0007,0.0015,
13.3300,0.0074,0.0075,0.0048,-0.0111,0.0007,0.0015,
13.3310,0.0074,0.0075,0.0048,-0.0116,0.0113,0.0003,
13.3330,0.0076,-0.0114,0.0041,-0.0116,0.0113,0.0003,
13.3850,0.0076,-0.0114,0.0041,-0.0116,0.0113,0.0003,
13.3870,0.0076,-0.0114,0.0041,-0.0116,0.0113,0.0003,
13.3880,0.0076,-0.0114,0.0041,-0.0116,0.0113,0.0003,
13.3890,0.0076,-0.0114,0.0041,-0.0116,0.0064,-0.0030,
13.3900,0.0005,0.0237,0.0010,-0.0116,0.0064,-0.0030,
13.4470,0.0005,0.0237,0.0010,-0.0116,0.0064,-0.0030,
13.4500,0.0005,0.0237,0.0010,-0.0116,0.0064,-0.0030,
13.4510,0.0005,0.0237,0.0010,-0.0116,0.0064,-0.0030,
13.4550,-0.0425,-0.0034,0.0280,-0.0116,0.0064,-0.0030,
13.4560,-0.0425,-0.0034,0.0280,-0.0124,-0.0005,-0.0017,
13.5020,-0.0425,-0.0034,0.0280,-0.0124,-0.0005,-0.0017,
13.5040,-0.0425,-0.0034,0.0280,-0.0124,-0.0005,-0.0017,
13.5060,-0.0425,-0.0034,0.0280,-0.0124,-0.0005,-0.0017,
13.5070,-0.0425,-0.0034,0.0280,-0.0132,-0.0038,0.0036,
13.5080,0.0309,0.0077,-0.0139,-0.0132,-0.0038,0.0036,
13.5620,0.0018,-0.0021,0.0558,-0.0132,-0.0038,0.0036,
13.5640,0.0018,-0.0021,0.0558,-0.0132,-0.0038,0.0036,
13.5650,0.0018,-0.0021,0.0558,-0.0132,-0.0038,0.0036,
13.5660,0.0018,-0.0021,0.0558,-0.0132,-0.0038,0.0036,
13.5680,0.0018,-0.0021,0.0558,-0.0181,-0.0025,0.0036,
13.6190,0.0018,-0.0021,0.0558,-0.0181,-0.0025,0.0036,
13.6210,0.0018,-0.0021,0.0558,-0.0181,-0.0025,0.0036,
13.6220,0.0018,-0.0021,0.0558,-0.0181,-0.0025,0.0036,
13.6240,0.0018,-0.0021,0.0558,-0.0185,0.0023,0.0032,
13.6250,0.0097,0.0063,0.0383,-0.0185,0.0023,0.0032,
13.6780,0.0097,0.0063,0.0383,-0.0185,0.0023,0.0032,
13.6810,0.0097,0.0063,0.0383,-0.0185,0.0023,0.0032,
13.6820,0.0097,0.0063,0.0383,-0.0185,0.0023,0.0032,
13.6830,0.0097,0.0063,0.0383,-0.0201,0.0060,0.0015,
13.6840,0.0343,-0.0154,0.0406,-0.0201,0.0060,0.0015,
13.7360,0.0343,-0.0154,0.0406,-0.0201,0.0060,0.0015,
13.7380,0.0343,-0.0154,0.0406,-0.0201,0.0060,0.0015,
13.7380,0.0343,-0.0154,0.0406,-0.0201,0.0060,0.0015,
13.7390,0.0343,-0.0154,0.0406,-0.0116,0.0089,0.0007,
13.7420,-0.0479,-0.0112,0.0066,-0.0116,0.0089,0.0007,
13.7940,-0.0479,-0.0112,0.0066,-0.0116,0.0089,0.0007,
13.7960,-0.0479,-0.0112,0.0066,-0.0116,0.0089,0.0007,
13.7960,-0.0479,-0.0112,0.0066,-0.0116,0.0089,0.0007,
13.7960,-0.0185,-0.0001,-0.0163,-0.0116,0.0089,0.0007,
13.7970,-0.0185,-0.0001,-0.0163,-0.0091,0.0015,0.0011,
13.8530,-0.0185,-0.0001,-0.0163,-0.0091,0.0015,0.0011,
13.8540,-0.0185,-0.0001,-0.0163,-0.0091,0.0015,0.0011,
13.8560,-0.0185,-0.0001,-0.0163,-0.0091,0.0015,0.0011,
13.8570,-0.0185,-0.0001,-0.0163,-0.0062,-0.0131,0.0032,
13.8580,0.0044,-0.0122,0.0050,-0.0062,-0.0131,0.0032,
13.9120,0.0044,-0.0122,0.0050,-0.0062,-0.0131,0.0032,
13.9140,0.0044,-0.0122,0.0050,-0.0062,-0.0131,0.0032,
13.9150,0.0044,-0.0122,0.0050,-0.0062,-0.0131,0.0032,
13.9150,0.0044,-0.0122,0.0050,-0.0030,-0.0111,0.0040,
13.9160,0.0411,-0.0085,0.0286,-0.0030,-0.0111,0.0040,
13.9700,0.0411,-0.0085,0.0286,-0.0030,-0.0111,0.0040,
13.9710,0.0411,-0.0085,0.0286,-0.0030,-0.0111,0.0040,
13.9720,0.0411,-0.0085,0.0286,-0.0030,-0.0111,0.0040,
13.9720,0.0411,-0.0085,0.0286,0.0027,-0.0054,0.0011,
13.9730,0.0265,-0.0060,0.0371,0.0027,-0.0054,0.0011,
14.0280,0.0265,-0.0060,0.0371,0.0027,-0.0054,0.0011,
14.0290,0.0265,-0.0060,0.0371,0.0027,-0.0054,0.0011,
14.0290,0.0265,-0.0060,0.0371,0.0027,-0.0054,0.0011,
14.0300,0.0154,-0.0115,0.0646,0.0027,-0.0054,0.0011,
14.0300,0.0154,-0.0115,0.0646,0.0109,-0.0021,0.0011,
14.0880,0.0154,-0.0115,0.0646,0.0109,-0.0021,0.0011,
14.0900,0.0154,-0.0115,0.0646,0.0109,-0.0021,0.0011,
14.0910,0.0154,-0.0115,0.0646,0.0109,-0.0021,0.0011,
14.0920,0.0154,-0.0115,0.0646,0.0214,0.0044,0.0023,
14.0930,0.0150,-0.0255,0.0634,0.0214,0.0044,0.0023,
14.1470,0.0150,-0.0255,0.0634,0.0214,0.0044,0.0023,
14.1490,0.0150,-0.0255,0.0634,0.0214,0.0044,0.0023,
14.1500,0.0150,-0.0255,0.0634,0.0214,0.0044,0.0023,
14.1510,0.0150,-0.0255,0.0634,0.0255,0.0081,0.0032,
14.1520,0.0033,0.0112,0.0420,0.0255,0.0081,0.0032,
14.2070,0.0033,0.0112,0.0420,0.0255,0.0081,0.0032,
14.2090,0.0033,0.0112,0.0420,0.0255,0.0081,0.0032,
14.2100,0.0033,0.0112,0.0420,0.0255,0.0081,0.0032,
14.2110,0.0033,0.0112,0.0420,0.0284,0.0060,0.0036,
14.2120,-0.0122,-0.0112,-0.0048,0.0284,0.0060,0.0036,
14.2640,-0.0122,-0.0112,-0.0048,0.0284,0.0060,0.0036,
14.2660,-0.0122,-0.0112,-0.0048,0.0284,0.0060,0.0036,
14.2680,-0.0122,-0.0112,-0.0048,0.0284,0.0060,0.0036,
14.2690,-0.0122,-0.0112,-0.0048,0.0316,-0.0005,-0.0021,
14.2700,-0.0218,-0.0014,-0.0310,0.0316,-0.0005,-0.0021,
14.3220,-0.0218,-0.0014,-0.0310,0.0316,-0.0005,-0.0021,
14.3250,-0.0218,-0.0014,-0.0310,0.0316,-0.0005,-0.0021,
14.3260,-0.0218,-0.0014,-0.0310,0.0316,-0.0005,-0.0021,
14.3270,-0.0218,-0.0014,-0.0310,0.0328,-0.0042,-0.0034,
14.3290,0.0302,0.0104,0.0426,0.0328,-0.0042,-0.0034,
14.3820,0.0302,0.0104,0.0426,0.0328,-0.0042,-0.0034,
14.3840,0.0302,0.0104,0.0426,0.0328,-0.0042,-0.0034,
14.3850,0.0302,0.0104,0.0426,0.0328,-0.0042,-0.0034,
14.3860,0.0302,0.0104,0.0426,0.0288,-0.0042,-0.0025,
14.3870,0.0016,0.0140,0.0662,0.0288,-0.0042,-0.0025,
14.4400,0.0016,0.0140,0.0662,0.0288,-0.0042,-0.0025,
14.4420,0.0016,0.0140,0.0662,0.0288,-0.0042,-0.0025,
14.4430,0.0016,0.0140,0.0662,0.0288,-0.0042,-0.0025,
14.4440,0.0016,0.0140,0.0662,0.0345,0.0003,-0.0050,
14.4460,0.0599,-0.0402,0.0457,0.0345,0.0003,-0.0050,
14.4750,0.0599,-0.0402,0.0457,0.0467,0.0178,-0.0152,
14.4760,0.0599,-0.0402,0.0457,0.0467,0.0178,-0.0152,
14.4770,0.0592,-0.0306,0.0650,0.0467,0.0178,-0.0152,
14.5180,0.0592,-0.0306,0.0650,0.0642,0.0203,-0.0135,
14.5200,0.0115,-0.0213,0.0840,0.0642,0.0203,-0.0135,
14.5630,0.0115,-0.0213,0.0840,0.0642,0.0203,-0.0135,
14.5660,0.0115,-0.0213,0.0840,0.0642,0.0203,-0.0135,
14.5670,0.0115,-0.0213,0.0840,0.0642,0.0203,-0.0135,
14.5680,0.0115,-0.0213,0.0840,0.0642,0.0203,-0.0135,
14.5700,0.0115,-0.0213,0.0840,0.0642,0.0203,-0.0135,
14.6160,0.0115,-0.0213,0.0840,0.0642,0.0203,-0.0135,
14.6180,0.0115,-0.0213,0.0840,0.0642,0.0203,-0.0135,
14.6190,0.0115,-0.0213,0.0840,0.0642,0.0203,-0.0135,
14.6200,0.0115,-0.0213,0.0840,0.0744,0.0113,-0.0131,
14.6210,-0.0027,-0.0276,0.0834,0.0744,0.0113,-0.0131,
14.6750,-0.0590,-0.0144,0.0836,0.0744,0.0113,-0.0131,
14.6770,-0.0590,-0.0144,0.0836,0.0744,0.0113,-0.0131,
14.6780,-0.0590,-0.0144,0.0836,0.0744,0.0113,-0.0131,
14.6800,-0.0590,-0.0144,0.0836,0.0744,0.0113,-0.0131,
14.6810,-0.0590,-0.0144,0.0836,0.1025,0.0020,-0.0176,
14.7330,-0.0590,-0.0144,0.0836,0.1025,0.0020,-0.0176,
14.7350,-0.0590,-0.0144,0.0836,0.1025,0.0020,-0.0176,
14.7370,-0.0590,-0.0144,0.0836,0.1025,0.0020,-0.0176,
14.7380,-0.0796,-0.1533,0.0974,0.1025,0.0020,-0.0176,
14.7390,-0.0796,-0.1533,0.0974,0.1371,-0.0213,-0.0482,
14.7910,-0.0796,-0.1533,0.0974,0.1371,-0.0213,-0.0482,
14.7930,-0.0796,-0.1533,0.0974,0.1371,-0.0213,-0.0482,
14.7950,-0.0796,-0.1533,0.0974,0.1371,-0.0213,-0.0482,
14.7960,-0.1793,-0.4426,-0.0902,0.1371,-0.0213,-0.0482,
14.7980,-0.1793,-0.4426,-0.0902,0.2181,0.0015,-0.0734,
14.8500,-0.1793,-0.4426,-0.0902,0.2181,0.0015,-0.0734,
14.8520,-0.1793,-0.4426,-0.0902,0.2181,0.0015,-0.0734,
14.8540,-0.1793,-0.4426,-0.0902,0.2181,0.0015,-0.0734,
14.8550,-0.1793,-0.4426,-0.0902,0.3452,0.0068,-0.0954,
14.8570,-0.3431,-1.5250,-0.2722,0.3452,0.0068,-0.0954,
14.9090,-0.3431,-1.5250,-0.2722,0.3452,0.0068,-0.0954,
14.9110,-0.3431,-1.5250,-0.2722,0.3452,0.0068,-0.0954,
14.9120,-0.3431,-1.5250,-0.2722,0.3452,0.0068,-0.0954,
14.9130,-0.3431,-1.5250,-0.2722,0.5150,-0.0245,-0.1202,
14.9150,0.9593,-5.1420,-0.3124,0.5150,-0.0245,-0.1202,
14.9670,0.9593,-5.1420,-0.3124,0.5150,-0.0245,-0.1202,
14.9690,0.9593,-5.1420,-0.3124,0.5150,-0.0245,-0.1202,
14.9710,0.9593,-5.1420,-0.3124,0.5150,-0.0245,-0.1202,
14.9730,0.9593,-5.1420,-0.3124,0.6938,0.1376,-0.1785,
14.9750,0.3958,-6.0567,2.7495,0.6938,0.1376,-0.1785,
15.0260,0.3958,-6.0567,2.7495,0.6938,0.1376,-0.1785,
15.0280,0.3958,-6.0567,2.7495,0.6938,0.1376,-0.1785,
15.0290,0.3958,-6.0567,2.7495,0.6938,0.1376,-0.1785,
15.0300,0.3958,-6.0567,2.7495,1.1711,-0.0852,-0.1402,
15.0320,0.4445,0.0712,0.2392,1.1711,-0.0852,-0.1402,
15.0840,0.4445,0.0712,0.2392,1.1711,-0.0852,-0.1402,
15.0870,0.4445,0.0712,0.2392,1.1711,-0.0852,-0.1402,
15.0880,0.4445,0.0712,0.2392,1.1711,-0.0852,-0.1402,
15.0890,0.2449,6.6469,-2.0272,1.1711,-0.0852,-0.1402,
15.0910,0.2449,6.6469,-2.0272,0.9858,0.2031,-0.0412,
15.1430,0.2449,6.6469,-2.0272,0.9858,0.2031,-0.0412,
15.1450,0.2449,6.6469,-2.0272,0.9858,0.2031,-0.0412,
15.1460,0.2449,6.6469,-2.0272,0.9858,0.2031,-0.0412,
15.1470,-3.0215,7.1506,-2.0912,0.9858,0.2031,-0.0412,
15.1490,-3.0215,7.1506,-2.0912,0.1269,0.2834,-0.1614,
15.2010,-3.0215,7.1506,-2.0912,0.1269,0.2834,-0.1614,
15.2030,-3.0215,7.1506,-2.0912,0.1269,0.2834,-0.1614,
15.2040,-3.0215,7.1506,-2.0912,0.1269,0.2834,-0.1614,
15.2060,-3.0215,7.1506,-2.0912,0.0919,-0.2623,0.1241,
15.2070,-1.8565,11.8648,-4.3380,0.0919,-0.2623,0.1241,
15.2600,-1.8565,11.8648,-4.3380,0.0919,-0.2623,0.1241,
15.2620,-1.8565,11.8648,-4.3380,0.0919,-0.2623,0.1241,
15.2630,-1.8565,11.8648,-4.3380,0.0919,-0.2623,0.1241,
15.2640,-1.8565,11.8648,-4.3380,-0.1028,-0.3886,0.2813,
15.2660,-1.7024,19.9062,-8.2784,-0.1028,-0.3886,0.2813,
15.3180,-1.7024,19.9062,-8.2784,-0.1028,-0.3886,0.2813,
15.3200,-1.7024,19.9062,-8.2784,-0.1028,-0.3886,0.2813,
15.3220,-1.7024,19.9062,-8.2784,-0.1028,-0.3886,0.2813,
15.3230,-1.7024,19.9062,-8.2784,-1.7737,0.0015,0.1392,
15.3240,1.4270,3.2618,-5.1795,-1.7737,0.0015,0.1392,
15.3770,1.4270,3.2618,-5.1795,-1.7737,0.0015,0.1392,
15.3790,1.4270,3.2618,-5.1795,-1.7737,0.0015,0.1392,
15.3800,1.4270,3.2618,-5.1795,-1.7737,0.0015,0.1392,
15.3820,1.4270,3.2618,-5.1795,-2.0734,-0.0897,0.1278,
15.3830,1.3505,-16.0333,0.7740,-2.0734,-0.0897,0.1278,
15.4350,1.3505,-16.0333,0.7740,-2.0734,-0.0897,0.1278,
15.4370,1.3505,-16.0333,0.7740,-2.0734,-0.0897,0.1278,
15.4390,1.3505,-16.0333,0.7740,-2.0734,-0.0897,0.1278,
15.4400,1.3505,-16.0333,0.7740,-0.3068,-0.3707,0.0076,
15.4420,-0.8403,-16.2218,2.4010,-0.3068,-0.3707,0.0076,
15.4950,-0.8403,-16.2218,2.4010,-0.3068,-0.3707,0.0076,
15.4980,-0.8403,-16.2218,2.4010,-0.3068,-0.3707,0.0076,
15.5000,-0.8403,-16.2218,2.4010,-0.3068,-0.3707,0.0076,
15.5020,-0.8403,-16.2218,2.4010,0.6168,-0.5429,0.2019,
15.5060,1.9468,-1.5702,3.1862,0.6168,-0.5429,0.2019,
15.5520,1.9468,-1.5702,3.1862,0.6168,-0.5429,0.2019,
15.5530,1.9468,-1.5702,3.1862,0.6168,-0.5429,0.2019,
15.5530,1.9468,-1.5702,3.1862,0.6168,-0.5429,0.2019,
15.5540,1.9468,-1.5702,3.1862,-0.3980,-0.1108,0.3122,
15.5540,2.4197,-12.2638,0.9604,-0.3980,-0.1108,0.3122,
15.6110,2.4197,-12.2638,0.9604,-0.3980,-0.1108,0.3122,
15.6140,2.4197,-12.2638,0.9604,-0.3980,-0.1108,0.3122,
15.6160,2.4197,-12.2638,0.9604,-0.3980,-0.1108,0.3122,
15.6170,2.4197,-12.2638,0.9604,-0.0677,0.1245,0.2552,
15.6190,-1.0090,-10.1589,2.0415,-0.0677,0.1245,0.2552,
15.6700,-1.0090,-10.1589,2.0415,-0.0677,0.1245,0.2552,
15.6720,-1.0090,-10.1589,2.0415,-0.0677,0.1245,0.2552,
15.6740,-1.0090,-10.1589,2.0415,-0.0677,0.1245,0.2552,
15.6750,-1.0090,-10.1589,2.0415,-0.0340,-0.2094,0.1062,
15.6770,0.9761,-6.6536,1.4954,-0.0340,-0.2094,0.1062,
15.7290,0.9761,-6.6536,1.4954,-0.0340,-0.2094,0.1062,
15.7310,0.9761,-6.6536,1.4954,-0.0340,-0.2094,0.1062,
15.7320,0.9761,-6.6536,1.4954,-0.0340,-0.2094,0.1062,
15.7330,0.9761,-6.6536,1.4954,-0.2107,-0.1161,0.0280,
15.7350,0.7088,-7.2097,0.8723,-0.2107,-0.1161,0.0280,
15.7870,0.7088,-7.2097,0.8723,-0.2107,-0.1161,0.0280,
15.7890,0.7088,-7.2097,0.8723,-0.2107,-0.1161,0.0280,
15.7910,0.7088,-7.2097,0.8723,-0.2107,-0.1161,0.0280,
15.7920,0.7088,-7.2097,0.8723,2.1342,0.5289,-0.2111,
15.7930,-2.1447,29.9258,-13.9471,2.1342,0.5289,-0.2111,
15.8460,-2.1447,29.9258,-13.9471,2.1342,0.5289,-0.2111,
15.8480,-2.1447,29.9258,-13.9471,2.1342,0.5289,-0.2111,
15.8500,-2.1447,29.9258,-13.9471,2.1342,0.5289,-0.2111,
15.8510,-2.1447,29.9258,-13.9471,-0.8228,-0.3752,-0.2176,
15.8540,0.0645,8.8734,2.3352,-0.8228,-0.3752,-0.2176,
15.9040,0.0645,8.8734,2.3352,-0.8228,-0.3752,-0.2176,
15.9060,0.0645,8.8734,2.3352,-0.8228,-0.3752,-0.2176,
15.9070,0.0645,8.8734,2.3352,-0.8228,-0.3752,-0.2176,
15.9090,0.0645,8.8734,2.3352,-0.6057,0.3318,-0.2045,
15.9100,-0.0130,-1.8221,-0.4078,-0.6057,0.3318,-0.2045,
15.9630,-0.0130,-1.8221,-0.4078,-0.6057,0.3318,-0.2045,
15.9660,-0.0130,-1.8221,-0.4078,-0.6057,0.3318,-0.2045,
15.9670,-0.0130,-1.8221,-0.4078,-0.6057,0.3318,-0.2045,
15.9680,-0.0130,-1.8221,-0.4078,-0.3239,-0.0188,0.1530,
15.9700,0.6595,-6.9958,1.7679,-0.3239,-0.0188,0.1530,
16.0210,0.6595,-6.9958,1.7679,-0.3239,-0.0188,0.1530,
16.0230,0.6595,-6.9958,1.7679,-0.3239,-0.0188,0.1530,
16.0250,0.6595,-6.9958,1.7679,-0.3239,-0.0188,0.1530,
16.0260,0.6595,-6.9958,1.7679,0.2519,0.0972,0.0447,
16.0280,0.6979,-1.8599,-0.1903,0.2519,0.0972,0.0447,
16.0800,0.6979,-1.8599,-0.1903,0.2519,0.0972,0.0447,
16.0820,0.6979,-1.8599,-0.1903,0.2519,0.0972,0.0447,
16.0830,0.6979,-1.8599,-0.1903,0.2519,0.0972,0.0447,
16.0840,0.6979,-1.8599,-0.1903,0.5183,0.1791,-0.0339,
16.0870,0.4482,4.0188,-0.8960,0.5183,0.1791,-0.0339,
16.1390,0.4482,4.0188,-0.8960,0.5183,0.1791,-0.0339,
16.1410,0.4482,4.0188,-0.8960,0.5183,0.1791,-0.0339,
16.1420,0.4482,4.0188,-0.8960,0.5183,0.1791,-0.0339,
16.1430,0.4482,4.0188,-0.8960,-0.3227,0.2060,-0.0616,
16.1450,0.1596,-0.6149,1.0676,-0.3227,0.2060,-0.0616,
16.1970,0.1596,-0.6149,1.0676,-0.3227,0.2060,-0.0616,
16.1990,0.1596,-0.6149,1.0676,-0.3227,0.2060,-0.0616,
16.2000,0.1596,-0.6149,1.0676,-0.3227,0.2060,-0.0616,
16.2020,0.1596,-0.6149,1.0676,-0.1842,0.1726,-0.0408,
16.2030,-0.3627,-0.4658,0.2038,-0.1842,0.1726,-0.0408,
16.2550,-0.3627,-0.4658,0.2038,-0.1842,0.1726,-0.0408,
16.2570,-0.3627,-0.4658,0.2038,-0.1842,0.1726,-0.0408,
16.2580,-0.3627,-0.4658,0.2038,-0.1842,0.1726,-0.0408,
16.2590,-0.3627,-0.4658,0.2038,-0.1455,0.1217,-0.0062,
16.2600,-0.1926,0.2013,0.1465,-0.1455,0.1217,-0.0062,
16.3140,-0.1926,0.2013,0.1465,-0.1455,0.1217,-0.0062,
16.3150,-0.1926,0.2013,0.1465,-0.1455,0.1217,-0.0062,
16.3160,-0.1926,0.2013,0.1465,-0.1455,0.1217,-0.0062,
16.3160,-0.1926,0.2013,0.1465,-0.1203,-0.0099,0.0316,
16.3170,-0.4198,-0.3084,0.1981,-0.1203,-0.0099,0.0316,
16.3720,-0.4198,-0.3084,0.1981,-0.1203,-0.0099,0.0316,
16.3730,-0.4198,-0.3084,0.1981,-0.1203,-0.0099,0.0316,
16.3730,-0.4198,-0.3084,0.1981,-0.1203,-0.0099,0.0316,
16.3740,-0.4198,-0.3084,0.1981,-0.0714,-0.0766,0.0593,
16.3740,0.2496,0.1846,0.0091,-0.0714,-0.0766,0.0593,
16.4310,0.2496,0.1846,0.0091,-0.0714,-0.0766,0.0593,
16.4320,0.2496,0.1846,0.0091,-0.0714,-0.0766,0.0593,
16.4320,0.2496,0.1846,0.0091,-0.0714,-0.0766,0.0593,
16.4330,0.2496,0.1846,0.0091,-0.1174,0.0109,0.0211,
16.4330,-0.1227,-0.0807,0.1236,-0.1174,0.0109,0.0211,
16.4900,-0.1227,-0.0807,0.1236,-0.1174,0.0109,0.0211,
16.4910,-0.1227,-0.0807,0.1236,-0.1174,0.0109,0.0211,
16.4920,-0.1227,-0.0807,0.1236,-0.1174,0.0109,0.0211,
16.4920,-0.1227,-0.0807,0.1236,-0.0763,-0.0050,0.0032,
16.4930,-0.1289,-0.1733,0.0266,-0.0763,-0.0050,0.0032,
16.5490,-0.1289,-0.1733,0.0266,-0.0763,-0.0050,0.0032,
16.5500,-0.1289,-0.1733,0.0266,-0.0763,-0.0050,0.0032,
16.5510,-0.1289,-0.1733,0.0266,-0.0763,-0.0050,0.0032,
16.5510,-0.1289,-0.1733,0.0266,-0.0323,-0.0107,-0.0131,
16.5520,-0.1317,-0.0947,-0.0527,-0.0323,-0.0107,-0.0131,
16.6070,-0.1317,-0.0947,-0.0527,-0.0323,-0.0107,-0.0131,
16.6100,-0.1317,-0.0947,-0.0527,-0.0323,-0.0107,-0.0131,
16.6110,-0.1317,-0.0947,-0.0527,-0.0323,-0.0107,-0.0131,
16.6120,-0.1317,-0.0947,-0.0527,0.0043,-0.0001,-0.0233,
16.6130,-0.2185,0.0381,-0.1820,0.0043,-0.0001,-0.0233,
16.6660,-0.2185,0.0381,-0.1820,0.0043,-0.0001,-0.0233,
16.6680,-0.2185,0.0381,-0.1820,0.0043,-0.0001,-0.0233,
16.6690,-0.2185,0.0381,-0.1820,0.0043,-0.0001,-0.0233,
16.6700,-0.1475,0.1214,-0.2017,0.0043,-0.0001,-0.0233,
16.6720,-0.1475,0.1214,-0.2017,0.0214,-0.0551,-0.0148,
16.7240,-0.1475,0.1214,-0.2017,0.0214,-0.0551,-0.0148,
16.7270,-0.1475,0.1214,-0.2017,0.0214,-0.0551,-0.0148,
16.7280,-0.1475,0.1214,-0.2017,0.0214,-0.0551,-0.0148,
16.7290,-0.1475,0.1214,-0.2017,-0.0034,-0.0762,-0.0009,
16.7300,0.0315,-0.1154,0.1058,-0.0034,-0.0762,-0.0009,
16.7830,0.0315,-0.1154,0.1058,-0.0034,-0.0762,-0.0009,
16.7850,0.0315,-0.1154,0.1058,-0.0034,-0.0762,-0.0009,
16.7870,0.0315,-0.1154,0.1058,-0.0034,-0.0762,-0.0009,
16.7880,0.0315,-0.1154,0.1058,0.0312,-0.0477,-0.0066,
16.7890,0.1237,0.0918,0.0204,0.0312,-0.0477,-0.0066,
16.8410,0.1237,0.0918,0.0204,0.0312,-0.0477,-0.0066,
16.8440,0.1237,0.0918,0.0204,0.0312,-0.0477,-0.0066,
16.8460,0.1237,0.0918,0.0204,0.0312,-0.0477,-0.0066,
16.8470,0.1237,0.0918,0.0204,0.0304,-0.0225,-0.0172,
16.8480,-0.0021,0.0594,-0.0838,0.0304,-0.0225,-0.0172,
16.9000,-0.0021,0.0594,-0.0838,0.0304,-0.0225,-0.0172,
16.9020,-0.0021,0.0594,-0.0838,0.0304,-0.0225,-0.0172,
16.9040,-0.0021,0.0594,-0.0838,0.0304,-0.0225,-0.0172,
16.9050,-0.0021,0.0594,-0.0838,0.0170,-0.0070,-0.0225,
16.9060,-0.0501,0.0702,-0.0201,0.0170,-0.0070,-0.0225,
16.9590,-0.0501,0.0702,-0.0201,0.0170,-0.0070,-0.0225,
16.9620,-0.0501,0.0702,-0.0201,0.0170,-0.0070,-0.0225,
16.9630,-0.0501,0.0702,-0.0201,0.0170,-0.0070,-0.0225,
16.9650,-0.0501,0.0702,-0.0201,0.0092,-0.0135,-0.0119,
16.9660,0.0415,0.0697,0.0519,0.0092,-0.0135,-0.0119,
17.0170,0.0415,0.0697,0.0519,0.0092,-0.0135,-0.0119,
17.0190,0.0415,0.0697,0.0519,0.0092,-0.0135,-0.0119,
17.0200,0.0415,0.0697,0.0519,0.0092,-0.0135,-0.0119,
17.0210,0.0415,0.0697,0.0519,0.0003,-0.0029,-0.0091,
17.0230,0.0133,0.0164,0.0546,0.0003,-0.0029,-0.0091,
17.0760,0.0133,0.0164,0.0546,0.0003,-0.0029,-0.0091,
17.0780,0.0133,0.0164,0.0546,0.0003,-0.0029,-0.0091,
17.0790,0.0133,0.0164,0.0546,0.0003,-0.0029,-0.0091,
17.0800,0.0133,0.0164,0.0546,0.0047,-0.0029,-0.0042,
17.0810,0.0334,0.0089,-0.0038,0.0047,-0.0029,-0.0042,
17.1360,0.0334,0.0089,-0.0038,0.0047,-0.0029,-0.0042,
17.1370,0.0334,0.0089,-0.0038,0.0047,-0.0029,-0.0042,
17.1380,0.0334,0.0089,-0.0038,0.0047,-0.0029,-0.0042,
17.1380,0.0334,0.0089,-0.0038,0.0080,0.0154,-0.0103,
17.1390,-0.0355,0.0546,-0.0248,0.0080,0.0154,-0.0103,
17.1920,-0.0355,0.0546,-0.0248,0.0080,0.0154,-0.0103,
17.1940,-0.0355,0.0546,-0.0248,0.0080,0.0154,-0.0103,
17.1950,-0.0355,0.0546,-0.0248,0.0080,0.0154,-0.0103,
17.1970,-0.0355,0.0546,-0.0248,0.0048,0.0044,-0.0111,
17.1980,-0.0420,0.0255,0.0019,0.0048,0.0044,-0.0111,
17.2520,-0.0420,0.0255,0.0019,0.0048,0.0044,-0.0111,
17.2540,-0.0420,0.0255,0.0019,0.0048,0.0044,-0.0111,
17.2550,-0.0420,0.0255,0.0019,0.0048,0.0044,-0.0111,
17.2570,-0.0420,0.0255,0.0019,-0.0009,-0.0025,-0.0070,
17.2580,-0.0322,0.0450,0.0287,-0.0009,-0.0025,-0.0070,
17.3100,-0.0322,0.0450,0.0287,-0.0009,-0.0025,-0.0070,
17.3120,-0.0322,0.0450,0.0287,-0.0009,-0.0025,-0.0070,
17.3130,-0.0322,0.0450,0.0287,-0.0009,-0.0025,-0.0070,
17.3140,-0.0322,0.0450,0.0287,-0.0075,-0.0119,-0.0013,
17.3160,-0.0020,-0.0138,0.0445,-0.0075,-0.0119,-0.0013,
17.3690,-0.0020,-0.0138,0.0445,-0.0075,-0.0119,-0.0013,
17.3710,-0.0020,-0.0138,0.0445,-0.0075,-0.0119,-0.0013,
17.3720,-0.0020,-0.0138,0.0445,-0.0075,-0.0119,-0.0013,
17.3730,-0.0020,-0.0138,0.0445,-0.0022,-0.0164,-0.0025,
17.3740,0.0423,0.0543,-0.0164,-0.0022,-0.0164,-0.0025,
17.4270,0.0423,0.0543,-0.0164,-0.0022,-0.0164,-0.0025,
17.4290,0.0423,0.0543,-0.0164,-0.0022,-0.0164,-0.0025,
17.4300,0.0423,0.0543,-0.0164,-0.0022,-0.0164,-0.0025,
17.4320,0.0423,0.0543,-0.0164,-0.0095,-0.0062,-0.0030,
17.4330,0.0581,-0.0135,0.0030,-0.0095,-0.0062,-0.0030,
17.4850,0.0581,-0.0135,0.0030,-0.0095,-0.0062,-0.0030,
17.4870,0.0581,-0.0135,0.0030,-0.0095,-0.0062,-0.0030,
17.4890,0.0581,-0.0135,0.0030,-0.0095,-0.0062,-0.0030,
17.4900,0.0581,-0.0135,0.0030,0.0031,-0.0013,-0.0107,
17.4910,-0.0833,-0.0132,-0.0235,0.0031,-0.0013,-0.0107,
17.5440,-0.0833,-0.0132,-0.0235,0.0031,-0.0013,-0.0107,
17.5460,-0.0833,-0.0132,-0.0235,0.0031,-0.0013,-0.0107,
17.5470,-0.0833,-0.0132,-0.0235,0.0031,-0.0013,-0.0107,
17.5490,-0.0833,-0.0132,-0.0235,0.0047,-0.0229,0.0003,
17.5500,0.0387,-0.0035,0.0284,0.0047,-0.0229,0.0003,
17.6030,0.0387,-0.0035,0.0284,0.0047,-0.0229,0.0003,
17.6050,0.0387,-0.0035,0.0284,0.0047,-0.0229,0.0003,
17.6060,0.0387,-0.0035,0.0284,0.0047,-0.0229,0.0003,
17.6080,0.0387,-0.0035,0.0284,0.0108,-0.0188,0.0085,
17.6090,-0.0020,0.0060,-0.0314,0.0108,-0.0188,0.0085,
17.6610,-0.0020,0.0060,-0.0314,0.0108,-0.0188,0.0085,
17.6630,-0.0020,0.0060,-0.0314,0.0108,-0.0188,0.0085,
17.6650,-0.0020,0.0060,-0.0314,0.0108,-0.0188,0.0085,
17.6660,0.0154,-0.0108,-0.0458,0.0108,-0.0188,0.0085,
17.6670,0.0154,-0.0108,-0.0458,0.0129,-0.0152,0.0068,
17.7200,0.0154,-0.0108,-0.0458,0.0129,-0.0152,0.0068,
17.7220,0.0154,-0.0108,-0.0458,0.0129,-0.0152,0.0068,
17.7230,0.0154,-0.0108,-0.0458,0.0129,-0.0152,0.0068,
17.7240,0.0251,-0.0128,0.0372,0.0129,-0.0152,0.0068,
17.7260,0.0251,-0.0128,0.0372,0.0186,-0.0152,0.0015,
17.7790,0.0251,-0.0128,0.0372,0.0186,-0.0152,0.0015,
17.7800,0.0251,-0.0128,0.0372,0.0186,-0.0152,0.0015,
17.7820,0.0251,-0.0128,0.0372,0.0186,-0.0152,0.0015,
17.7830,0.0251,-0.0128,0.0372,0.0214,-0.0099,-0.0009,
17.7840,0.0145,0.0206,-0.0730,0.0214,-0.0099,-0.0009,
17.8370,0.0145,0.0206,-0.0730,0.0214,-0.0099,-0.0009,
17.8400,0.0145,0.0206,-0.0730,0.0214,-0.0099,-0.0009,
17.8410,0.0145,0.0206,-0.0730,0.0214,-0.0099,-0.0009,
17.8420,0.0145,0.0206,-0.0730,0.0161,-0.0160,-0.0009,
17.8440,0.0030,0.0044,-0.0238,0.0161,-0.0160,-0.0009,
17.8960,0.0030,0.0044,-0.0238,0.0161,-0.0160,-0.0009,
17.8980,0.0030,0.0044,-0.0238,0.0161,-0.0160,-0.0009,
17.9000,0.0030,0.0044,-0.0238,0.0161,-0.0160,-0.0009,
17.9010,0.0030,0.0044,-0.0238,0.0149,-0.0135,-0.0062,
17.9020,-0.0121,-0.0134,-0.0747,0.0149,-0.0135,-0.0062,
17.9550,-0.0121,-0.0134,-0.0747,0.0149,-0.0135,-0.0062,
17.9570,-0.0121,-0.0134,-0.0747,0.0149,-0.0135,-0.0062,
17.9580,-0.0121,-0.0134,-0.0747,0.0149,-0.0135,-0.0062,
17.9590,-0.0121,-0.0134,-0.0747,0.0108,-0.0168,-0.0050,
17.9600,0.0445,0.0349,-0.0350,0.0108,-0.0168,-0.0050,
18.0130,0.0445,0.0349,-0.0350,0.0108,-0.0168,-0.0050,
18.0150,0.0445,0.0349,-0.0350,0.0108,-0.0168,-0.0050,
18.0160,0.0445,0.0349,-0.0350,0.0108,-0.0168,-0.0050,
18.0180,0.0445,0.0349,-0.0350,0.0039,-0.0078,-0.0083,
18.0190,-0.0406,0.0106,0.0030,0.0039,-0.0078,-0.0083,
18.0710,-0.0406,0.0106,0.0030,0.0039,-0.0078,-0.0083,
18.0730,-0.0406,0.0106,0.0030,0.0039,-0.0078,-0.0083,
18.0740,-0.0406,0.0106,0.0030,0.0039,-0.0078,-0.0083,
18.0760,-0.0406,0.0106,0.0030,-0.0034,-0.0094,-0.0054,
18.0770,0.0130,0.0278,0.0111,-0.0034,-0.0094,-0.0054,
18.1300,0.0130,0.0278,0.0111,-0.0034,-0.0094,-0.0054,
18.1320,0.0130,0.0278,0.0111,-0.0034,-0.0094,-0.0054,
18.1330,0.0130,0.0278,0.0111,-0.0034,-0.0094,-0.0054,
18.1350,-0.0179,0.0078,0.0338,-0.0034,-0.0094,-0.0054,
18.1360,-0.0179,0.0078,0.0338,-0.0083,-0.0038,-0.0042,
18.1880,-0.0179,0.0078,0.0338,-0.0083,-0.0038,-0.0042,
18.1900,-0.0179,0.0078,0.0338,-0.0083,-0.0038,-0.0042,
18.1910,-0.0179,0.0078,0.0338,-0.0083,-0.0038,-0.0042,
18.1930,-0.0179,0.0078,0.0338,-0.0034,0.0023,-0.0013,
18.1940,0.0186,-0.0195,0.0278,-0.0034,0.0023,-0.0013,
18.2470,0.0186,-0.0195,0.0278,-0.0034,0.0023,-0.0013,
18.2490,0.0186,-0.0195,0.0278,-0.0034,0.0023,-0.0013,
18.2500,0.0186,-0.0195,0.0278,-0.0034,0.0023,-0.0013,
18.2520,0.0186,-0.0195,0.0278,0.0019,0.0068,-0.0078,
18.2530,0.0091,0.0010,-0.0051,0.0019,0.0068,-0.0078,
18.3060,0.0091,0.0010,-0.0051,0.0019,0.0068,-0.0078,
18.3080,0.0091,0.0010,-0.0051,0.0019,0.0068,-0.0078,
18.3090,0.0091,0.0010,-0.0051,0.0019,0.0068,-0.0078,
18.3100,-0.0026,0.0262,0.0261,0.0019,0.0068,-0.0078,
18.3120,-0.0026,0.0262,0.0261,-0.0005,0.0077,-0.0087,
18.3640,-0.0026,0.0262,0.0261,-0.0005,0.0077,-0.0087,
18.3660,-0.0026,0.0262,0.0261,-0.0005,0.0077,-0.0087,
18.3670,-0.0026,0.0262,0.0261,-0.0005,0.0077,-0.0087,
18.3680,-0.0026,0.0262,0.0261,-0.0050,0.0101,-0.0082,
18.3700,-0.0176,0.0126,0.0624,-0.0050,0.0101,-0.0082,
18.4230,-0.0176,0.0126,0.0624,-0.0050,0.0101,-0.0082,
18.4250,-0.0176,0.0126,0.0624,-0.0050,0.0101,-0.0082,
18.4260,-0.0176,0.0126,0.0624,-0.0050,0.0101,-0.0082,
18.4270,-0.0176,0.0126,0.0624,-0.0062,0.0105,-0.0078,
18.4290,0.0014,0.0203,0.0246,-0.0062,0.0105,-0.0078,
18.4800,0.0014,0.0203,0.0246,-0.0062,0.0105,-0.0078,
18.4810,0.0014,0.0203,0.0246,-0.0062,0.0105,-0.0078,
18.4810,0.0014,0.0203,0.0246,-0.0062,0.0105,-0.0078,
18.4820,0.0014,0.0203,0.0246,-0.0152,0.0129,-0.0034,
18.4820,0.0094,-0.0081,0.0746,-0.0152,0.0129,-0.0034,
18.5400,0.0094,-0.0081,0.0746,-0.0152,0.0129,-0.0034,
18.5410,0.0094,-0.0081,0.0746,-0.0152,0.0129,-0.0034,
18.5420,0.0094,-0.0081,0.0746,-0.0152,0.0129,-0.0034,
18.5420,0.0094,-0.0081,0.0746,-0.0095,0.0215,-0.0046,
18.5420,-0.0107,-0.0122,0.0267,-0.0095,0.0215,-0.0046,
18.5980,-0.0107,-0.0122,0.0267,-0.0095,0.0215,-0.0046,
18.5990,-0.0107,-0.0122,0.0267,-0.0095,0.0215,-0.0046,
18.5990,-0.0107,-0.0122,0.0267,-0.0095,0.0215,-0.0046,
18.6000,-0.0107,-0.0122,0.0267,-0.0067,0.0129,0.0007,
18.6000,0.0251,0.0034,0.0148,-0.0067,0.0129,0.0007,
18.6280,0.0251,0.0034,0.0148,0.0003,0.0239,-0.0042,
18.6300,0.0220,0.0033,0.0147,0.0003,0.0239,-0.0042,
18.6770,0.0220,0.0033,0.0147,0.0003,0.0239,-0.0042,
18.6790,0.0220,0.0033,0.0147,0.0003,0.0239,-0.0042,
18.6800,0.0220,0.0033,0.0147,0.0003,0.0239,-0.0042,
18.6820,0.0220,0.0033,0.0147,0.0003,0.0239,-0.0042,
18.6830,0.0220,0.0033,0.0147,0.0027,0.0138,-0.0042,
18.6840,-0.0173,-0.0157,-0.0082,0.0027,0.0138,-0.0042,
18.7350,-0.0173,-0.0157,-0.0082,0.0027,0.0138,-0.0042,
18.7380,-0.0173,-0.0157,-0.0082,0.0027,0.0138,-0.0042,
18.7390,-0.0173,-0.0157,-0.0082,0.0027,0.0138,-0.0042,
18.7400,-0.0173,-0.0157,-0.0082,0.0100,0.0089,-0.0042,
18.7410,-0.0156,-0.0149,-0.0088,0.0100,0.0089,-0.0042,
18.7940,-0.0156,-0.0149,-0.0088,0.0100,0.0089,-0.0042,
18.7960,-0.0156,-0.0149,-0.0088,0.0100,0.0089,-0.0042,
18.7970,-0.0156,-0.0149,-0.0088,0.0100,0.0089,-0.0042,
18.7980,-0.0156,-0.0149,-0.0088,0.0096,0.0097,-0.0001,
18.8000,-0.0049,0.0161,-0.0110,0.0096,0.0097,-0.0001,
18.8520,-0.0049,0.0161,-0.0110,0.0096,0.0097,-0.0001,
18.8540,-0.0049,0.0161,-0.0110,0.0096,0.0097,-0.0001,
18.8560,-0.0049,0.0161,-0.0110,0.0096,0.0097,-0.0001,
18.8570,-0.0049,0.0161,-0.0110,0.0137,0.0068,0.0015,
18.8580,-0.0065,-0.0063,0.0195,0.0137,0.0068,0.0015,
18.9110,-0.0065,-0.0063,0.0195,0.0137,0.0068,0.0015,
18.9130,-0.0065,-0.0063,0.0195,0.0137,0.0068,0.0015,
18.9150,-0.0065,-0.0063,0.0195,0.0137,0.0068,0.0015,
18.9160,-0.0065,-0.0063,0.0195,0.0194,-0.0025,0.0003,
18.9170,-0.0220,-0.0207,0.0091,0.0194,-0.0025,0.0003,
18.9690,-0.0220,-0.0207,0.0091,0.0194,-0.0025,0.0003,
18.9710,-0.0220,-0.0207,0.0091,0.0194,-0.0025,0.0003,
18.9730,-0.0220,-0.0207,0.0091,0.0194,-0.0025,0.0003,
18.9740,-0.0220,-0.0207,0.0091,0.0092,0.0007,-0.0013,
18.9750,0.0385,0.0521,-0.0305,0.0092,0.0007,-0.0013,
19.0280,0.0385,0.0521,-0.0305,0.0092,0.0007,-0.0013,
19.0310,0.0385,0.0521,-0.0305,0.0092,0.0007,-0.0013,
19.0320,0.0385,0.0521,-0.0305,0.0092,0.0007,-0.0013,
19.0330,0.0385,0.0521,-0.0305,0.0015,0.0129,-0.0025,
19.0340,0.0398,0.0317,-0.0114,0.0015,0.0129,-0.0025,
19.0870,0.0398,0.0317,-0.0114,0.0015,0.0129,-0.0025,
19.0890,0.0398,0.0317,-0.0114,0.0015,0.0129,-0.0025,
19.0900,0.0398,0.0317,-0.0114,0.0015,0.0129,-0.0025,
19.0910,-0.0647,0.0054,-0.0022,0.0015,0.0129,-0.0025,
19.0920,-0.0647,0.0054,-0.0022,0.0003,0.0007,0.0015,
19.1460,-0.0647,0.0054,-0.0022,0.0003,0.0007,0.0015,
19.1480,-0.0647,0.0054,-0.0022,0.0003,0.0007,0.0015,
19.1490,-0.0647,0.0054,-0.0022,0.0003,0.0007,0.0015,
19.1500,-0.0647,0.0054,-0.0022,-0.0083,0.0003,0.0007,
19.1510,0.0258,0.0131,-0.0138,-0.0083,0.0003,0.0007,
19.2040,0.0258,0.0131,-0.0138,-0.0083,0.0003,0.0007,
19.2060,0.0258,0.0131,-0.0138,-0.0083,0.0003,0.0007,
19.2070,0.0258,0.0131,-0.0138,-0.0083,0.0003,0.0007,
19.2090,0.0258,0.0131,-0.0138,-0.0087,-0.0001,0.0085,
19.2100,-0.0217,0.0280,-0.0089,-0.0087,-0.0001,0.0085,
19.2630,-0.0217,0.0280,-0.0089,-0.0087,-0.0001,0.0085,
19.2650,-0.0217,0.0280,-0.0089,-0.0087,-0.0001,0.0085,
19.2660,-0.0217,0.0280,-0.0089,-0.0087,-0.0001,0.0085,
19.2670,0.0503,-0.0181,0.0006,-0.0087,-0.0001,0.0085,
19.2680,0.0503,-0.0181,0.0006,-0.0091,0.0170,0.0048,
19.3210,0.0503,-0.0181,0.0006,-0.0091,0.0170,0.0048,
19.3230,0.0503,-0.0181,0.0006,-0.0091,0.0170,0.0048,
19.3240,0.0503,-0.0181,0.0006,-0.0091,0.0170,0.0048,
19.3260,0.0503,-0.0181,0.0006,-0.0087,0.0235,-0.0013,
19.3270,0.0402,-0.0049,0.0068,-0.0087,0.0235,-0.0013,
19.3790,0.0402,-0.0049,0.0068,-0.0087,0.0235,-0.0013,
19.3810,0.0402,-0.0049,0.0068,-0.0087,0.0235,-0.0013,
19.3820,0.0402,-0.0049,0.0068,-0.0087,0.0235,-0.0013,
19.3840,0.0402,-0.0049,0.0068,-0.0079,0.0146,0.0003,
19.3850,-0.0134,0.0169,-0.0063,-0.0079,0.0146,0.0003,
19.4390,0.0145,-0.0214,-0.0015,-0.0079,0.0146,0.0003,
19.4420,0.0145,-0.0214,-0.0015,-0.0079,0.0146,0.0003,
19.4440,0.0145,-0.0214,-0.0015,-0.0079,0.0146,0.0003,
19.4460,0.0145,-0.0214,-0.0015,-0.0079,0.0146,0.0003,
19.4480,0.0145,-0.0214,-0.0015,-0.0046,0.0235,-0.0038,
19.4970,0.0145,-0.0214,-0.0015,-0.0046,0.0235,-0.0038,
19.4990,0.0145,-0.0214,-0.0015,-0.0046,0.0235,-0.0038,
19.5000,0.0145,-0.0214,-0.0015,-0.0046,0.0235,-0.0038,
19.5020,0.0145,-0.0214,-0.0015,-0.0075,0.0101,0.0007,
19.5030,-0.0246,0.0028,-0.0300,-0.0075,0.0101,0.0007,
19.5560,-0.0246,0.0028,-0.0300,-0.0075,0.0101,0.0007,
19.5580,-0.0246,0.0028,-0.0300,-0.0075,0.0101,0.0007,
19.5600,-0.0246,0.0028,-0.0300,-0.0075,0.0101,0.0007,
19.5610,-0.0246,0.0028,-0.0300,-0.0067,0.0142,-0.0001,
19.5630,0.0051,-0.0258,0.0048,-0.0067,0.0142,-0.0001,
19.6140,0.0051,-0.0258,0.0048,-0.0067,0.0142,-0.0001,
19.6170,0.0051,-0.0258,0.0048,-0.0067,0.0142,-0.0001,
19.6190,0.0051,-0.0258,0.0048,-0.0067,0.0142,-0.0001,
19.6200,0.0051,-0.0258,0.0048,-0.0062,0.0129,0.0011,
19.6210,0.0020,-0.0186,-0.0102,-0.0062,0.0129,0.0011,
19.6720,0.0020,-0.0186,-0.0102,-0.0062,0.0129,0.0011,
19.6740,0.0020,-0.0186,-0.0102,-0.0062,0.0129,0.0011,
19.6760,0.0020,-0.0186,-0.0102,-0.0062,0.0129,0.0011,
19.6780,0.0020,-0.0186,-0.0102,0.0108,0.0077,-0.0009,
19.6790,0.0057,-0.0275,0.0359,0.0108,0.0077,-0.0009,
19.7310,0.0057,-0.0275,0.0359,0.0108,0.0077,-0.0009,
19.7330,0.0057,-0.0275,0.0359,0.0108,0.0077,-0.0009,
19.7340,0.0057,-0.0275,0.0359,0.0108,0.0077,-0.0009,
19.7360,0.0057,-0.0275,0.0359,0.0121,-0.0078,0.0060,
19.7380,-0.0652,0.0041,0.0332,0.0121,-0.0078,0.0060,
19.7900,-0.0652,0.0041,0.0332,0.0121,-0.0078,0.0060,
19.7920,-0.0652,0.0041,0.0332,0.0121,-0.0078,0.0060,
19.7930,-0.0652,0.0041,0.0332,0.0121,-0.0078,0.0060,
19.7940,-0.0652,0.0041,0.0332,-0.0005,-0.0131,-0.0013,
19.7960,0.0192,0.0575,-0.0176,-0.0005,-0.0131,-0.0013,
19.8480,0.0192,0.0575,-0.0176,-0.0005,-0.0131,-0.0013,
19.8500,0.0192,0.0575,-0.0176,-0.0005,-0.0131,-0.0013,
19.8510,0.0192,0.0575,-0.0176,-0.0005,-0.0131,-0.0013,
19.8520,0.0621,0.0141,-0.0329,-0.0005,-0.0131,-0.0013,
19.8540,0.0621,0.0141,-0.0329,-0.0148,0.0007,-0.0095,
19.9070,0.0621,0.0141,-0.0329,-0.0148,0.0007,-0.0095,
19.9090,0.0621,0.0141,-0.0329,-0.0148,0.0007,-0.0095,
19.9100,0.0621,0.0141,-0.0329,-0.0148,0.0007,-0.0095,
19.9110,0.0621,0.0141,-0.0329,-0.0266,-0.0021,-0.0030,
19.9120,-0.0388,0.0362,-0.0207,-0.0266,-0.0021,-0.0030,
19.9650,-0.0388,0.0362,-0.0207,-0.0266,-0.0021,-0.0030,
19.9680,-0.0388,0.0362,-0.0207,-0.0266,-0.0021,-0.0030,
19.9690,-0.0388,0.0362,-0.0207,-0.0266,-0.0021,-0.0030,
19.9700,-0.0388,0.0362,-0.0207,-0.0229,-0.0009,0.0015,
19.9710,0.0173,-0.0198,0.0459,-0.0229,-0.0009,0.0015,
20.0240,0.0173,-0.0198,0.0459,-0.0229,-0.0009,0.0015,
20.0260,0.0173,-0.0198,0.0459,-0.0229,-0.0009,0.0015,
20.0270,0.0173,-0.0198,0.0459,-0.0229,-0.0009,0.0015,
20.0290,0.0173,-0.0198,0.0459,-0.0209,0.0081,0.0072,
20.0300,-0.0025,0.0019,0.0003,-0.0209,0.0081,0.0072,
20.0820,-0.0025,0.0019,0.0003,-0.0209,0.0081,0.0072,
20.0850,-0.0025,0.0019,0.0003,-0.0209,0.0081,0.0072,
20.0860,-0.0025,0.0019,0.0003,-0.0209,0.0081,0.0072,
20.0880,-0.0025,0.0019,0.0003,-0.0107,-0.0009,0.0072,
20.0890,-0.0079,-0.0338,-0.0009,-0.0107,-0.0009,0.0072,
20.1410,-0.0079,-0.0338,-0.0009,-0.0107,-0.0009,0.0072,
20.1430,-0.0079,-0.0338,-0.0009,-0.0107,-0.0009,0.0072,
20.1450,-0.0079,-0.0338,-0.0009,-0.0107,-0.0009,0.0072,
20.1460,-0.0079,-0.0338,-0.0009,-0.0083,0.0032,0.0044,
20.1480,0.0025,-0.0056,0.0214,-0.0083,0.0032,0.0044,
20.2000,0.0025,-0.0056,0.0214,-0.0083,0.0032,0.0044,
20.2020,0.0025,-0.0056,0.0214,-0.0083,0.0032,0.0044,
20.2030,0.0025,-0.0056,0.0214,-0.0083,0.0032,0.0044,
20.2040,0.0025,-0.0056,0.0214,-0.0083,0.0011,0.0003,
20.2060,0.0155,0.0197,0.0157,-0.0083,0.0011,0.0003,
20.2580,0.0155,0.0197,0.0157,-0.0083,0.0011,0.0003,
20.2600,0.0155,0.0197,0.0157,-0.0083,0.0011,0.0003,
20.2610,0.0155,0.0197,0.0157,-0.0083,0.0011,0.0003,
20.2630,0.0155,0.0197,0.0157,-0.0103,-0.0005,-0.0025,
20.2640,-0.0041,-0.0011,0.0002,-0.0103,-0.0005,-0.0025,
20.3170,-0.0041,-0.0011,0.0002,-0.0103,-0.0005,-0.0025,
20.3190,-0.0041,-0.0011,0.0002,-0.0103,-0.0005,-0.0025,
20.3200,-0.0041,-0.0011,0.0002,-0.0103,-0.0005,-0.0025,
20.3220,-0.0041,-0.0011,0.0002,0.0007,-0.0160,-0.0009,
20.3230,-0.0179,-0.0299,-0.0379,0.0007,-0.0160,-0.0009,
20.3750,-0.0179,-0.0299,-0.0379,0.0007,-0.0160,-0.0009,
20.3770,-0.0179,-0.0299,-0.0379,0.0007,-0.0160,-0.0009,
20.3780,-0.0179,-0.0299,-0.0379,0.0007,-0.0160,-0.0009,
20.3800,-0.0179,-0.0299,-0.0379,0.0092,-0.0196,0.0048,
20.3810,-0.0093,-0.0217,0.0002,0.0092,-0.0196,0.0048,
20.4340,-0.0093,-0.0217,0.0002,0.0092,-0.0196,0.0048,
20.4360,-0.0093,-0.0217,0.0002,0.0092,-0.0196,0.0048,
20.4380,-0.0093,-0.0217,0.0002,0.0092,-0.0196,0.0048,
20.4390,-0.0093,-0.0217,0.0002,0.0088,-0.0147,0.0060,
20.4400,0.0178,0.0032,0.0492,0.0088,-0.0147,0.0060,
20.4930,0.0178,0.0032,0.0492,0.0088,-0.0147,0.0060,
20.4950,0.0178,0.0032,0.0492,0.0088,-0.0147,0.0060,
20.4960,0.0178,0.0032,0.0492,0.0088,-0.0147,0.0060,
20.4980,-0.0076,0.0362,0.0508,0.0088,-0.0147,0.0060,
20.4990,-0.0076,0.0362,0.0508,0.0035,-0.0172,0.0048,
20.5500,-0.0076,0.0362,0.0508,0.0035,-0.0172,0.0048,
20.5520,-0.0076,0.0362,0.0508,0.0035,-0.0172,0.0048,
20.5530,-0.0076,0.0362,0.0508,0.0035,-0.0172,0.0048,
20.5540,-0.0076,0.0362,0.0508,0.0007,-0.0229,0.0052,
20.5560,0.0092,0.0058,0.0308,0.0007,-0.0229,0.0052,
20.6090,0.0092,0.0058,0.0308,0.0007,-0.0229,0.0052,
20.6110,0.0092,0.0058,0.0308,0.0007,-0.0229,0.0052,
20.6130,0.0092,0.0058,0.0308,0.0007,-0.0229,0.0052,
20.6140,0.0092,0.0058,0.0308,-0.0009,-0.0196,0.0068,
20.6150,0.0343,0.0316,0.0406,-0.0009,-0.0196,0.0068,
20.6670,0.0343,0.0316,0.0406,-0.0009,-0.0196,0.0068,
20.6680,0.0343,0.0316,0.0406,-0.0009,-0.0196,0.0068,
20.6680,0.0343,0.0316,0.0406,-0.0009,-0.0196,0.0068,
20.6690,0.0343,0.0316,0.0406,-0.0042,-0.0253,0.0072,
20.6690,-0.0026,0.0074,0.0453,-0.0042,-0.0253,0.0072,
20.7260,-0.0026,0.0074,0.0453,-0.0042,-0.0253,0.0072,
20.7270,-0.0026,0.0074,0.0453,-0.0042,-0.0253,0.0072,
20.7270,-0.0026,0.0074,0.0453,-0.0042,-0.0253,0.0072,
20.7280,-0.0026,0.0074,0.0453,-0.0058,-0.0196,0.0032,
20.7280,-0.0048,-0.0076,0.0192,-0.0058,-0.0196,0.0032,
20.7860,-0.0048,-0.0076,0.0192,-0.0058,-0.0196,0.0032,
20.7880,-0.0048,-0.0076,0.0192,-0.0058,-0.0196,0.0032,
20.7890,-0.0048,-0.0076,0.0192,-0.0058,-0.0196,0.0032,
20.7900,-0.0048,-0.0076,0.0192,-0.0095,-0.0090,0.0040,
20.7910,0.0236,0.0126,0.0848,-0.0095,-0.0090,0.0040,
20.8440,0.0236,0.0126,0.0848,-0.0095,-0.0090,0.0040,
20.8460,0.0236,0.0126,0.0848,-0.0095,-0.0090,0.0040,
20.8470,0.0236,0.0126,0.0848,-0.0095,-0.0090,0.0040,
20.8480,0.0236,0.0126,0.0848,-0.0115,-0.0013,0.0060,
20.8500,0.0344,0.0169,0.0745,-0.0115,-0.0013,0.0060,
20.9020,0.0344,0.0169,0.0745,-0.0115,-0.0013,0.0060,
20.9050,0.0344,0.0169,0.0745,-0.0115,-0.0013,0.0060,
20.9060,0.0344,0.0169,0.0745,-0.0115,-0.0013,0.0060,
20.9070,0.0354,-0.0324,0.0779,-0.0115,-0.0013,0.0060,
20.9080,0.0354,-0.0324,0.0779,-0.0046,0.0101,0.0027,
20.9620,0.0354,-0.0324,0.0779,-0.0046,0.0101,0.0027,
20.9640,0.0354,-0.0324,0.0779,-0.0046,0.0101,0.0027,
20.9650,0.0354,-0.0324,0.0779,-0.0046,0.0101,0.0027,
20.9660,0.0354,-0.0324,0.0779,-0.0018,0.0089,0.0011,
20.9680,0.0166,0.0015,0.0136,-0.0018,0.0089,0.0011,
21.0190,0.0166,0.0015,0.0136,-0.0018,0.0089,0.0011,
21.0200,0.0166,0.0015,0.0136,-0.0018,0.0089,0.0011,
21.0200,0.0166,0.0015,0.0136,-0.0018,0.0089,0.0011,
21.0200,0.0240,0.0047,0.0191,-0.0018,0.0089,0.0011,
21.0210,0.0240,0.0047,0.0191,0.0060,0.0077,-0.0001,
21.0780,0.0240,0.0047,0.0191,0.0060,0.0077,-0.0001,
21.0800,0.0240,0.0047,0.0191,0.0060,0.0077,-0.0001,
21.0820,0.0240,0.0047,0.0191,0.0060,0.0077,-0.0001,
21.0830,0.0240,0.0047,0.0191,0.0096,0.0068,-0.0021,
21.0840,-0.0130,-0.0132,0.0278,0.0096,0.0068,-0.0021,
21.1350,-0.0130,-0.0132,0.0278,0.0096,0.0068,-0.0021,
21.1360,-0.0130,-0.0132,0.0278,0.0096,0.0068,-0.0021,
21.1370,-0.0130,-0.0132,0.0278,0.0096,0.0068,-0.0021,
21.1370,-0.0130,-0.0132,0.0278,0.0100,-0.0050,-0.0034,
21.1380,0.0048,0.0234,0.0188,0.0100,-0.0050,-0.0034,
21.1940,0.0048,0.0234,0.0188,0.0100,-0.0050,-0.0034,
21.1960,0.0048,0.0234,0.0188,0.0100,-0.0050,-0.0034,
21.1960,0.0048,0.0234,0.0188,0.0100,-0.0050,-0.0034,
21.1970,0.0048,0.0234,0.0188,0.0198,-0.0127,-0.0017,
21.1970,-0.0156,-0.0155,0.0154,0.0198,-0.0127,-0.0017,
21.2540,-0.0156,-0.0155,0.0154,0.0198,-0.0127,-0.0017,
21.2560,-0.0156,-0.0155,0.0154,0.0198,-0.0127,-0.0017,
21.2570,-0.0156,-0.0155,0.0154,0.0198,-0.0127,-0.0017,
21.2590,-0.0156,-0.0155,0.0154,0.0308,0.0113,-0.0083,
21.2600,0.0551,-0.0133,0.0496,0.0308,0.0113,-0.0083,
21.3120,0.0551,-0.0133,0.0496,0.0308,0.0113,-0.0083,
21.3130,0.0551,-0.0133,0.0496,0.0308,0.0113,-0.0083,
21.3140,0.0551,-0.0133,0.0496,0.0308,0.0113,-0.0083,
21.3140,0.0551,-0.0133,0.0496,0.0312,0.0296,-0.0115,
21.3150,0.0597,0.0060,0.1053,0.0312,0.0296,-0.0115,
21.3700,0.0597,0.0060,0.1053,0.0312,0.0296,-0.0115,
21.3730,0.0597,0.0060,0.1053,0.0312,0.0296,-0.0115,
21.3740,0.0597,0.0060,0.1053,0.0312,0.0296,-0.0115,
21.3750,0.0597,0.0060,0.1053,0.0532,0.0256,-0.0144,
21.3760,-0.0017,-0.0518,0.2287,0.0532,0.0256,-0.0144,
21.4290,-0.0017,-0.0518,0.2287,0.0532,0.0256,-0.0144,
21.4310,-0.0017,-0.0518,0.2287,0.0532,0.0256,-0.0144,
21.4320,-0.0017,-0.0518,0.2287,0.0532,0.0256,-0.0144,
21.4340,-0.0017,-0.0518,0.2287,0.0768,0.0207,-0.0042,
21.4350,-0.0170,-0.0165,0.1465,0.0768,0.0207,-0.0042,
21.4880,-0.0170,-0.0165,0.1465,0.0768,0.0207,-0.0042,
21.4900,-0.0170,-0.0165,0.1465,0.0768,0.0207,-0.0042,
21.4910,-0.0170,-0.0165,0.1465,0.0768,0.0207,-0.0042,
21.4920,-0.0170,-0.0165,0.1465,0.0797,0.0300,-0.0095,
21.4930,0.0441,0.0100,0.0497,0.0797,0.0300,-0.0095,
21.5470,0.0441,0.0100,0.0497,0.0797,0.0300,-0.0095,
21.5480,0.0441,0.0100,0.0497,0.0797,0.0300,-0.0095,
21.5510,0.0441,0.0100,0.0497,0.0797,0.0300,-0.0095,
21.5520,0.0441,0.0100,0.0497,0.0874,0.0170,-0.0148,
21.5530,-0.0260,0.0163,0.0739,0.0874,0.0170,-0.0148,
21.6050,-0.0260,0.0163,0.0739,0.0874,0.0170,-0.0148,
21.6070,-0.0260,0.0163,0.0739,0.0874,0.0170,-0.0148,
21.6080,-0.0260,0.0163,0.0739,0.0874,0.0170,-0.0148,
21.6100,0.0372,0.0229,0.1177,0.0874,0.0170,-0.0148,
21.6110,0.0372,0.0229,0.1177,0.0874,0.0129,-0.0156,
21.6640,0.0372,0.0229,0.1177,0.0874,0.0129,-0.0156,
21.6660,0.0372,0.0229,0.1177,0.0874,0.0129,-0.0156,
21.6680,0.0372,0.0229,0.1177,0.0874,0.0129,-0.0156,
21.6690,0.0372,0.0229,0.1177,0.1008,-0.0078,-0.0172,
21.6700,-0.0575,0.0098,0.1133,0.1008,-0.0078,-0.0172,
21.7220,-0.0575,0.0098,0.1133,0.1008,-0.0078,-0.0172,
21.7240,-0.0575,0.0098,0.1133,0.1008,-0.0078,-0.0172,
21.7250,-0.0575,0.0098,0.1133,0.1008,-0.0078,-0.0172,
21.7260,-0.0575,0.0098,0.1133,0.1432,-0.0196,-0.0311,
21.7280,-0.0371,-0.0387,0.1389,0.1432,-0.0196,-0.0311,
21.7810,-0.0371,-0.0387,0.1389,0.1432,-0.0196,-0.0311,
21.7830,-0.0371,-0.0387,0.1389,0.1432,-0.0196,-0.0311,
21.7840,-0.0371,-0.0387,0.1389,0.1432,-0.0196,-0.0311,
21.7850,0.0325,0.0773,-0.0124,0.1432,-0.0196,-0.0311,
21.7870,0.0325,0.0773,-0.0124,0.1705,-0.0025,-0.0653,
21.8390,0.0325,0.0773,-0.0124,0.1705,-0.0025,-0.0653,
21.8420,0.0325,0.0773,-0.0124,0.1705,-0.0025,-0.0653,
21.8430,0.0325,0.0773,-0.0124,0.1705,-0.0025,-0.0653,
21.8440,0.0325,0.0773,-0.0124,0.2723,-0.0302,-0.1023,
21.8460,0.0722,-0.8927,-0.1204,0.2723,-0.0302,-0.1023,
21.8980,0.0722,-0.8927,-0.1204,0.2723,-0.0302,-0.1023,
21.9000,0.0722,-0.8927,-0.1204,0.2723,-0.0302,-0.1023,
21.9010,0.0722,-0.8927,-0.1204,0.2723,-0.0302,-0.1023,
21.9020,0.0722,-0.8927,-0.1204,0.3818,0.0349,-0.1182,
21.9040,0.8071,-4.7861,-0.4239,0.3818,0.0349,-0.1182,
21.9560,0.8071,-4.7861,-0.4239,0.3818,0.0349,-0.1182,
21.9590,0.8071,-4.7861,-0.4239,0.3818,0.0349,-0.1182,
21.9600,0.8071,-4.7861,-0.4239,0.3818,0.0349,-0.1182,
21.9610,0.8071,-4.7861,-0.4239,0.9984,0.0089,-0.1520,
21.9630,0.0793,-7.8547,2.7034,0.9984,0.0089,-0.1520,
22.0150,0.0793,-7.8547,2.7034,0.9984,0.0089,-0.1520,
22.0170,0.0793,-7.8547,2.7034,0.9984,0.0089,-0.1520,
22.0190,0.0793,-7.8547,2.7034,0.9984,0.0089,-0.1520,
22.0200,0.0793,-7.8547,2.7034,1.4187,0.2162,-0.1992,
22.0210,0.6778,-0.5672,1.7991,1.4187,0.2162,-0.1992,
22.0740,0.6778,-0.5672,1.7991,1.4187,0.2162,-0.1992,
22.0760,0.6778,-0.5672,1.7991,1.4187,0.2162,-0.1992,
22.0770,0.6778,-0.5672,1.7991,1.4187,0.2162,-0.1992,
22.0780,0.6778,-0.5672,1.7991,0.8477,0.2776,-0.2078,
22.0800,-0.1390,3.2011,-0.9387,0.8477,0.2776,-0.2078,
22.1320,-0.1390,3.2011,-0.9387,0.8477,0.2776,-0.2078,
22.1340,-0.1390,3.2011,-0.9387,0.8477,0.2776,-0.2078,
22.1360,-0.1390,3.2011,-0.9387,0.8477,0.2776,-0.2078,
22.1370,-0.1390,3.2011,-0.9387,0.0654,-0.1503,0.0577,
22.1380,-1.3711,10.2217,-3.2244,0.0654,-0.1503,0.0577,
22.1910,-1.3711,10.2217,-3.2244,0.0654,-0.1503,0.0577,
22.1930,-1.3711,10.2217,-3.2244,0.0654,-0.1503,0.0577,
22.1940,-1.3711,10.2217,-3.2244,0.0654,-0.1503,0.0577,
22.1950,-3.5646,11.7496,-4.4657,0.0654,-0.1503,0.0577,
22.1970,-3.5646,11.7496,-4.4657,-0.1427,-0.4085,0.2723,
22.2490,-3.5646,11.7496,-4.4657,-0.1427,-0.4085,0.2723,
22.2510,-3.5646,11.7496,-4.4657,-0.1427,-0.4085,0.2723,
22.2530,-3.5646,11.7496,-4.4657,-0.1427,-0.4085,0.2723,
22.2540,-3.5646,11.7496,-4.4657,-1.3501,-0.0803,0.2129,
22.2560,0.1330,18.7605,-8.4280,-1.3501,-0.0803,0.2129,
22.3080,0.1330,18.7605,-8.4280,-1.3501,-0.0803,0.2129,
22.3100,0.1330,18.7605,-8.4280,-1.3501,-0.0803,0.2129,
22.3110,0.1330,18.7605,-8.4280,-1.3501,-0.0803,0.2129,
22.3120,0.1330,18.7605,-8.4280,-1.8620,0.0459,0.2507,
22.3140,-1.0739,6.4148,-5.5538,-1.8620,0.0459,0.2507,
22.3670,-1.0739,6.4148,-5.5538,-1.8620,0.0459,0.2507,
22.3690,-1.0739,6.4148,-5.5538,-1.8620,0.0459,0.2507,
22.3700,-1.0739,6.4148,-5.5538,-1.8620,0.0459,0.2507,
22.3710,2.1027,-13.7002,-0.0253,-1.8620,0.0459,0.2507,
22.3730,2.1027,-13.7002,-0.0253,-0.7377,0.1925,0.0895,
22.4250,2.1027,-13.7002,-0.0253,-0.7377,0.1925,0.0895,
22.4280,2.1027,-13.7002,-0.0253,-0.7377,0.1925,0.0895,
22.4290,2.1027,-13.7002,-0.0253,-0.7377,0.1925,0.0895,
22.4300,2.1027,-13.7002,-0.0253,0.4559,0.3917,-0.1630,
22.4320,1.2756,-16.5600,2.2906,0.4559,0.3917,-0.1630,
22.4840,1.2756,-16.5600,2.2906,0.4559,0.3917,-0.1630,
22.4860,1.2756,-16.5600,2.2906,0.4559,0.3917,-0.1630,
22.4880,1.2756,-16.5600,2.2906,0.4559,0.3917,-0.1630,
22.4890,1.2756,-16.5600,2.2906,-0.4872,0.0284,0.0919,
22.4910,0.0906,-3.2588,2.3426,-0.4872,0.0284,0.0919,
22.5420,0.0906,-3.2588,2.3426,-0.4872,0.0284,0.0919,
22.5440,0.0906,-3.2588,2.3426,-0.4872,0.0284,0.0919,
22.5450,0.0906,-3.2588,2.3426,-0.4872,0.0284,0.0919,
22.5460,0.0906,-3.2588,2.3426,-0.0099,0.3102,0.0141,
22.5470,1.1421,-11.6301,3.1473,-0.0099,0.3102,0.0141,
22.6010,1.1421,-11.6301,3.1473,-0.0099,0.3102,0.0141,
22.6040,1.1421,-11.6301,3.1473,-0.0099,0.3102,0.0141,
22.6060,1.1421,-11.6301,3.1473,-0.0099,0.3102,0.0141,
22.6070,1.1421,-11.6301,3.1473,0.2185,0.2797,0.0036,
22.6090,0.7203,-10.8002,1.7332,0.2185,0.2797,0.0036,
22.6590,0.7203,-10.8002,1.7332,0.2185,0.2797,0.0036,
22.6610,0.7203,-10.8002,1.7332,0.2185,0.2797,0.0036,
22.6630,0.7203,-10.8002,1.7332,0.2185,0.2797,0.0036,
22.6640,-0.2172,-7.4993,1.2085,0.2185,0.2797,0.0036,
22.6660,-0.2172,-7.4993,1.2085,0.0679,-0.0428,0.0598,
22.7180,-0.2172,-7.4993,1.2085,0.0679,-0.0428,0.0598,
22.7200,-0.2172,-7.4993,1.2085,0.0679,-0.0428,0.0598,
22.7210,-0.2172,-7.4993,1.2085,0.0679,-0.0428,0.0598,
22.7220,-0.2172,-7.4993,1.2085,2.2588,0.4532,-0.0539,
22.7240,-0.1692,-8.7884,2.7029,2.2588,0.4532,-0.0539,
22.7760,-0.1692,-8.7884,2.7029,2.2588,0.4532,-0.0539,
22.7780,-0.1692,-8.7884,2.7029,2.2588,0.4532,-0.0539,
22.7790,-0.1692,-8.7884,2.7029,2.2588,0.4532,-0.0539,
22.7810,-0.1692,-8.7884,2.7029,-0.4705,-0.4187,-0.1683,
22.7820,-1.5551,30.1008,-13.6846,-0.4705,-0.4187,-0.1683,
22.8360,-1.5551,30.1008,-13.6846,-0.4705,-0.4187,-0.1683,
22.8380,-1.5551,30.1008,-13.6846,-0.4705,-0.4187,-0.1683,
22.8390,-1.5551,30.1008,-13.6846,-0.4705,-0.4187,-0.1683,
22.8410,-1.5551,30.1008,-13.6846,-1.1771,0.4829,-0.2693,
22.8430,1.2807,12.9746,-2.1751,-1.1771,0.4829,-0.2693,
22.8930,1.2807,12.9746,-2.1751,-1.1771,0.4829,-0.2693,
22.8950,1.2807,12.9746,-2.1751,-1.1771,0.4829,-0.2693,
22.8960,1.2807,12.9746,-2.1751,-1.1771,0.4829,-0.2693,
22.8970,1.2807,12.9746,-2.1751,-0.2974,-0.5217,0.2263,
22.8990,-4.0559,-3.5590,1.0976,-0.2974,-0.5217,0.2263,
22.9520,-4.0559,-3.5590,1.0976,-0.2974,-0.5217,0.2263,
22.9540,-4.0559,-3.5590,1.0976,-0.2974,-0.5217,0.2263,
22.9560,-4.0559,-3.5590,1.0976,-0.2974,-0.5217,0.2263,
22.9570,-4.0559,-3.5590,1.0976,-0.2669,0.0932,0.1058,
22.9580,3.4153,-5.3792,-0.3121,-0.2669,0.0932,0.1058,
23.0110,3.4153,-5.3792,-0.3121,-0.2669,0.0932,0.1058,
23.0130,3.4153,-5.3792,-0.3121,-0.2669,0.0932,0.1058,
23.0140,3.4153,-5.3792,-0.3121,-0.2669,0.0932,0.1058,
23.0150,3.4153,-5.3792,-0.3121,0.1424,-0.0013,0.0492,
23.0170,0.2870,-5.4010,1.9842,0.1424,-0.0013,0.0492,
23.0690,0.2870,-5.4010,1.9842,0.1424,-0.0013,0.0492,
23.0710,0.2870,-5.4010,1.9842,0.1424,-0.0013,0.0492,
23.0730,0.2870,-5.4010,1.9842,0.1424,-0.0013,0.0492,
23.0740,0.2870,-5.4010,1.9842,0.4230,-0.2037,0.2108,
23.0760,-1.5963,1.4080,0.4245,0.4230,-0.2037,0.2108,
23.1280,-1.5963,1.4080,0.4245,0.4230,-0.2037,0.2108,
23.1310,-1.5963,1.4080,0.4245,0.4230,-0.2037,0.2108,
23.1320,-1.5963,1.4080,0.4245,0.4230,-0.2037,0.2108,
23.1340,-1.5963,1.4080,0.4245,-0.6530,-0.0990,-0.0029,
23.1360,1.8112,4.9197,-3.8150,-0.6530,-0.0990,-0.0029,
23.1870,1.8112,4.9197,-3.8150,-0.6530,-0.0990,-0.0029,
23.1890,1.8112,4.9197,-3.8150,-0.6530,-0.0990,-0.0029,
23.1910,1.8112,4.9197,-3.8150,-0.6530,-0.0990,-0.0029,
23.1920,1.8112,4.9197,-3.8150,0.1717,-0.1214,-0.0319,
23.1930,-0.1457,-4.3718,2.7008,0.1717,-0.1214,-0.0319,
23.2470,-0.4213,1.6627,-0.8814,0.1717,-0.1214,-0.0319,
23.2500,-0.4213,1.6627,-0.8814,0.1717,-0.1214,-0.0319,
23.2510,-0.4213,1.6627,-0.8814,0.1717,-0.1214,-0.0319,
23.2520,-0.4213,1.6627,-0.8814,0.1717,-0.1214,-0.0319,
23.2540,-0.4213,1.6627,-0.8814,-0.0543,-0.1251,-0.0009,
23.3040,-0.4213,1.6627,-0.8814,-0.0543,-0.1251,-0.0009,
23.3060,-0.4213,1.6627,-0.8814,-0.0543,-0.1251,-0.0009,
23.3070,-0.4213,1.6627,-0.8814,-0.0543,-0.1251,-0.0009,
23.3090,-0.0254,0.4000,-0.1494,-0.0543,-0.1251,-0.0009,
23.3100,-0.0254,0.4000,-0.1494,-0.1862,-0.1300,0.0309,
23.3620,-0.0254,0.4000,-0.1494,-0.1862,-0.1300,0.0309,
23.3640,-0.0254,0.4000,-0.1494,-0.1862,-0.1300,0.0309,
23.3650,-0.0254,0.4000,-0.1494,-0.1862,-0.1300,0.0309,
23.3660,-0.0254,0.4000,-0.1494,-0.0270,-0.1047,0.0255,
23.3680,-0.2459,-0.9326,0.6062,-0.0270,-0.1047,0.0255,
23.4210,-0.2459,-0.9326,0.6062,-0.0270,-0.1047,0.0255,
23.4230,-0.2459,-0.9326,0.6062,-0.0270,-0.1047,0.0255,
23.4240,-0.2459,-0.9326,0.6062,-0.0270,-0.1047,0.0255,
23.4260,-0.2459,-0.9326,0.6062,-0.1317,-0.1564,0.0215,
23.4270,0.1288,0.6642,-0.1417,-0.1317,-0.1564,0.0215,
23.4790,0.1288,0.6642,-0.1417,-0.1317,-0.1564,0.0215,
23.4820,0.1288,0.6642,-0.1417,-0.1317,-0.1564,0.0215,
23.4830,0.1288,0.6642,-0.1417,-0.1317,-0.1564,0.0215,
23.4840,0.1288,0.6642,-0.1417,-0.0767,-0.0994,0.0109,
23.4850,-0.0155,-0.1763,0.0432,-0.0767,-0.0994,0.0109,
23.5380,-0.0155,-0.1763,0.0432,-0.0767,-0.0994,0.0109,
23.5400,-0.0155,-0.1763,0.0432,-0.0767,-0.0994,0.0109,
23.5410,-0.0155,-0.1763,0.0432,-0.0767,-0.0994,0.0109,
23.5420,-0.0155,-0.1763,0.0432,-0.0466,-0.0689,0.0272,
23.5430,0.2123,-0.1306,0.0881,-0.0466,-0.0689,0.0272,
23.5970,0.2123,-0.1306,0.0881,-0.0466,-0.0689,0.0272,
23.5990,0.2123,-0.1306,0.0881,-0.0466,-0.0689,0.0272,
23.6000,0.2123,-0.1306,0.0881,-0.0466,-0.0689,0.0272,
23.6010,0.3051,0.2054,-0.0479,-0.0466,-0.0689,0.0272,
23.6030,0.3051,0.2054,-0.0479,-0.0787,-0.0298,0.0113,
23.6560,0.3051,0.2054,-0.0479,-0.0787,-0.0298,0.0113,
23.6580,0.3051,0.2054,-0.0479,-0.0787,-0.0298,0.0113,
23.6590,0.3051,0.2054,-0.0479,-0.0787,-0.0298,0.0113,
23.6600,0.1683,-0.0320,0.0661,-0.0787,-0.0298,0.0113,
23.6620,0.1683,-0.0320,0.0661,-0.0690,-0.0160,0.0076,
23.7140,0.1683,-0.0320,0.0661,-0.0690,-0.0160,0.0076,
23.7160,0.1683,-0.0320,0.0661,-0.0690,-0.0160,0.0076,
23.7170,0.1683,-0.0320,0.0661,-0.0690,-0.0160,0.0076,
23.7180,0.1683,-0.0320,0.0661,-0.0490,-0.0094,0.0031,
23.7200,0.0849,0.0377,0.0508,-0.0490,-0.0094,0.0031,
23.7720,0.0849,0.0377,0.0508,-0.0490,-0.0094,0.0031,
23.7740,0.0849,0.0377,0.0508,-0.0490,-0.0094,0.0031,
23.7760,0.0849,0.0377,0.0508,-0.0490,-0.0094,0.0031,
23.7770,0.0849,0.0377,0.0508,-0.0303,0.0219,-0.0087,
23.7780,0.1147,-0.0225,0.0745,-0.0303,0.0219,-0.0087,
23.8310,0.1147,-0.0225,0.0745,-0.0303,0.0219,-0.0087,
23.8330,0.1147,-0.0225,0.0745,-0.0303,0.0219,-0.0087,
23.8340,0.1147,-0.0225,0.0745,-0.0303,0.0219,-0.0087,
23.8360,0.1147,-0.0225,0.0745,-0.0254,0.0072,-0.0103,
23.8370,-0.0879,-0.0119,0.0197,-0.0254,0.0072,-0.0103,
23.8900,-0.0879,-0.0119,0.0197,-0.0254,0.0072,-0.0103,
23.8920,-0.0879,-0.0119,0.0197,-0.0254,0.0072,-0.0103,
23.8930,-0.0879,-0.0119,0.0197,-0.0254,0.0072,-0.0103,
23.8940,-0.0879,-0.0119,0.0197,-0.0156,-0.0168,-0.0078,
23.8950,-0.0816,0.0066,0.0450,-0.0156,-0.0168,-0.0078,
23.9480,-0.0816,0.0066,0.0450,-0.0156,-0.0168,-0.0078,
23.9500,-0.0816,0.0066,0.0450,-0.0156,-0.0168,-0.0078,
23.9510,-0.0816,0.0066,0.0450,-0.0156,-0.0168,-0.0078,
23.9520,-0.0584,0.0023,0.1194,-0.0156,-0.0168,-0.0078,
23.9540,-0.0584,0.0023,0.1194,0.0007,-0.0070,-0.0127,
24.0070,-0.0584,0.0023,0.1194,0.0007,-0.0070,-0.0127,
24.0090,-0.0584,0.0023,0.1194,0.0007,-0.0070,-0.0127,
24.0100,-0.0584,0.0023,0.1194,0.0007,-0.0070,-0.0127,
24.0110,-0.0584,0.0023,0.1194,0.0206,-0.0074,-0.0172,
24.0120,-0.0191,-0.0395,0.0820,0.0206,-0.0074,-0.0172,
24.0660,-0.0191,-0.0395,0.0820,0.0206,-0.0074,-0.0172,
24.0690,-0.0191,-0.0395,0.0820,0.0206,-0.0074,-0.0172,
24.0710,-0.0191,-0.0395,0.0820,0.0206,-0.0074,-0.0172,
24.0720,-0.0191,-0.0395,0.0820,0.0182,-0.0082,-0.0131,
24.0730,-0.0032,0.0370,0.1098,0.0182,-0.0082,-0.0131,
24.1230,-0.0032,0.0370,0.1098,0.0182,-0.0082,-0.0131,
24.1240,-0.0032,0.0370,0.1098,0.0182,-0.0082,-0.0131,
24.1240,-0.0032,0.0370,0.1098,0.0182,-0.0082,-0.0131,
24.1250,-0.0032,0.0370,0.1098,0.0043,-0.0270,-0.0058,
24.1250,-0.0432,0.0599,0.1096,0.0043,-0.0270,-0.0058,
24.1820,-0.0432,0.0599,0.1096,0.0043,-0.0270,-0.0058,
24.1840,-0.0432,0.0599,0.1096,0.0043,-0.0270,-0.0058,
24.1860,-0.0432,0.0599,0.1096,0.0043,-0.0270,-0.0058,
24.1870,-0.0432,0.0599,0.1096,0.0043,-0.0152,-0.0091,
24.1880,0.0315,0.0237,0.0683,0.0043,-0.0152,-0.0091,
24.2410,0.0315,0.0237,0.0683,0.0043,-0.0152,-0.0091,
24.2430,0.0315,0.0237,0.0683,0.0043,-0.0152,-0.0091,
24.2440,0.0315,0.0237,0.0683,0.0043,-0.0152,-0.0091,
24.2450,0.0315,0.0237,0.0683,0.0052,-0.0335,-0.0095,
24.2460,-0.0362,0.0201,-0.1074,0.0052,-0.0335,-0.0095,
24.3000,-0.0362,0.0201,-0.1074,0.0052,-0.0335,-0.0095,
24.3020,-0.0362,0.0201,-0.1074,0.0052,-0.0335,-0.0095,
24.3030,-0.0362,0.0201,-0.1074,0.0052,-0.0335,-0.0095,
24.3050,-0.0362,0.0201,-0.1074,0.0052,-0.0416,-0.0009,
24.3060,-0.0153,0.0198,-0.0527,0.0052,-0.0416,-0.0009,
24.3580,-0.0153,0.0198,-0.0527,0.0052,-0.0416,-0.0009,
24.3600,-0.0153,0.0198,-0.0527,0.0052,-0.0416,-0.0009,
24.3620,-0.0153,0.0198,-0.0527,0.0052,-0.0416,-0.0009,
24.3630,-0.0153,0.0198,-0.0527,-0.0014,-0.0306,0.0011,
24.3640,0.0238,0.0217,0.0436,-0.0014,-0.0306,0.0011,
24.4170,0.0238,0.0217,0.0436,-0.0014,-0.0306,0.0011,
24.4190,0.0238,0.0217,0.0436,-0.0014,-0.0306,0.0011,
24.4200,0.0238,0.0217,0.0436,-0.0014,-0.0306,0.0011,
24.4210,0.0238,0.0217,0.0436,0.0035,-0.0262,0.0023,
24.4220,0.0248,0.0153,0.0695,0.0035,-0.0262,0.0023,
24.4760,0.0248,0.0153,0.0695,0.0035,-0.0262,0.0023,
24.4780,0.0248,0.0153,0.0695,0.0035,-0.0262,0.0023,
24.4790,0.0248,0.0153,0.0695,0.0035,-0.0262,0.0023,
24.4800,0.0248,0.0153,0.0695,0.0003,-0.0156,-0.0021,
24.4810,0.0588,0.0378,-0.0056,0.0003,-0.0156,-0.0021,
24.5340,0.0588,0.0378,-0.0056,0.0003,-0.0156,-0.0021,
24.5360,0.0588,0.0378,-0.0056,0.0003,-0.0156,-0.0021,
24.5380,0.0588,0.0378,-0.0056,0.0003,-0.0156,-0.0021,
24.5390,0.0588,0.0378,-0.0056,0.0011,0.0068,-0.0103,
24.5400,0.0638,-0.0203,0.0306,0.0011,0.0068,-0.0103,
24.5920,0.0638,-0.0203,0.0306,0.0011,0.0068,-0.0103,
24.5940,0.0638,-0.0203,0.0306,0.0011,0.0068,-0.0103,
24.5960,0.0638,-0.0203,0.0306,0.0011,0.0068,-0.0103,
24.5970,0.0199,0.0106,0.0040,0.0011,0.0068,-0.0103,
24.5980,0.0199,0.0106,0.0040,-0.0022,0.0097,-0.0078,
24.6500,0.0199,0.0106,0.0040,-0.0022,0.0097,-0.0078,
24.6530,0.0199,0.0106,0.0040,-0.0022,0.0097,-0.0078,
24.6540,0.0199,0.0106,0.0040,-0.0022,0.0097,-0.0078,
24.6550,0.0199,0.0106,0.0040,0.0039,0.0060,-0.0074,
24.6560,-0.0026,-0.0302,0.0208,0.0039,0.0060,-0.0074,
24.7090,-0.0026,-0.0302,0.0208,0.0039,0.0060,-0.0074,
24.7100,-0.0026,-0.0302,0.0208,0.0039,0.0060,-0.0074,
24.7100,-0.0026,-0.0302,0.0208,0.0039,0.0060,-0.0074,
24.7110,-0.0026,-0.0302,0.0208,-0.0005,0.0007,-0.0017,
24.7110,-0.0391,0.0214,-0.0768,-0.0005,0.0007,-0.0017,
24.7680,-0.0391,0.0214,-0.0768,-0.0005,0.0007,-0.0017,
24.7700,-0.0391,0.0214,-0.0768,-0.0005,0.0007,-0.0017,
24.7720,-0.0391,0.0214,-0.0768,-0.0005,0.0007,-0.0017,
24.7740,0.0311,-0.0149,-0.0125,-0.0005,0.0007,-0.0017,
24.7760,0.0311,-0.0149,-0.0125,0.0015,0.0064,0.0003,
24.8270,0.0311,-0.0149,-0.0125,0.0015,0.0064,0.0003,
24.8290,0.0311,-0.0149,-0.0125,0.0015,0.0064,0.0003,
24.8300,0.0311,-0.0149,-0.0125,0.0015,0.0064,0.0003,
24.8320,0.0311,-0.0149,-0.0125,-0.0009,0.0015,-0.0034,
24.8330,-0.0113,0.0337,-0.0122,-0.0009,0.0015,-0.0034,
24.8850,-0.0113,0.0337,-0.0122,-0.0009,0.0015,-0.0034,
24.8880,-0.0113,0.0337,-0.0122,-0.0009,0.0015,-0.0034,
24.8900,-0.0113,0.0337,-0.0122,-0.0009,0.0015,-0.0034,
24.8910,0.0059,-0.0014,0.0310,-0.0009,0.0015,-0.0034,
24.8920,0.0059,-0.0014,0.0310,-0.0014,-0.0005,-0.0005,
24.9440,0.0059,-0.0014,0.0310,-0.0014,-0.0005,-0.0005,
24.9460,0.0059,-0.0014,0.0310,-0.0014,-0.0005,-0.0005,
24.9470,0.0059,-0.0014,0.0310,-0.0014,-0.0005,-0.0005,
24.9490,-0.0001,-0.0032,0.0107,-0.0014,-0.0005,-0.0005,
24.9500,-0.0001,-0.0032,0.0107,-0.0067,-0.0001,-0.0021,
25.0030,-0.0001,-0.0032,0.0107,-0.0067,-0.0001,-0.0021,
25.0060,-0.0001,-0.0032,0.0107,-0.0067,-0.0001,-0.0021,
25.0070,-0.0001,-0.0032,0.0107,-0.0067,-0.0001,-0.0021,
25.0090,-0.0001,-0.0032,0.0107,-0.0083,-0.0025,0.0003,
25.0100,0.0022,0.0069,-0.0196,-0.0083,-0.0025,0.0003,
25.0610,0.0022,0.0069,-0.0196,-0.0083,-0.0025,0.0003,
25.0630,0.0022,0.0069,-0.0196,-0.0083,-0.0025,0.0003,
25.0650,0.0022,0.0069,-0.0196,-0.0083,-0.0025,0.0003,
25.0660,0.0022,0.0069,-0.0196,-0.0046,0.0036,-0.0009,
25.0680,0.0091,0.0256,-0.0096,-0.0046,0.0036,-0.0009,
25.1200,0.0091,0.0256,-0.0096,-0.0046,0.0036,-0.0009,
25.1220,0.0091,0.0256,-0.0096,-0.0046,0.0036,-0.0009,
25.1230,0.0091,0.0256,-0.0096,-0.0046,0.0036,-0.0009,
25.1240,0.0091,0.0256,-0.0096,-0.0054,-0.0013,0.0015,
25.1260,-0.0174,-0.0027,-0.0014,-0.0054,-0.0013,0.0015,
25.1780,-0.0174,-0.0027,-0.0014,-0.0054,-0.0013,0.0015,
25.1800,-0.0174,-0.0027,-0.0014,-0.0054,-0.0013,0.0015,
25.1810,-0.0174,-0.0027,-0.0014,-0.0054,-0.0013,0.0015,
25.1820,-0.0174,-0.0027,-0.0014,-0.0034,-0.0029,0.0052,
25.1830,0.0036,0.0246,0.0019,-0.0034,-0.0029,0.0052,
25.2360,0.0036,0.0246,0.0019,-0.0034,-0.0029,0.0052,
25.2390,0.0036,0.0246,0.0019,-0.0034,-0.0029,0.0052,
25.2400,0.0036,0.0246,0.0019,-0.0034,-0.0029,0.0052,
25.2410,0.0036,0.0246,0.0019,0.0051,0.0097,-0.0034,
25.2420,0.0421,-0.0271,0.0069,0.0051,0.0097,-0.0034,
25.2950,0.0421,-0.0271,0.0069,0.0051,0.0097,-0.0034,
25.2970,0.0421,-0.0271,0.0069,0.0051,0.0097,-0.0034,
25.2990,0.0421,-0.0271,0.0069,0.0051,0.0097,-0.0034,
25.3000,0.0421,-0.0271,0.0069,0.0064,-0.0005,-0.0054,
25.3010,-0.0144,-0.0387,-0.0212,0.0064,-0.0005,-0.0054,
25.3540,-0.0144,-0.0387,-0.0212,0.0064,-0.0005,-0.0054,
25.3560,-0.0144,-0.0387,-0.0212,0.0064,-0.0005,-0.0054,
25.3580,-0.0144,-0.0387,-0.0212,0.0064,-0.0005,-0.0054,
25.3590,-0.0164,0.0275,0.0501,0.0064,-0.0005,-0.0054,
25.3600,-0.0164,0.0275,0.0501,0.0011,-0.0066,-0.0013,
25.4120,-0.0164,0.0275,0.0501,0.0011,-0.0066,-0.0013,
25.4140,-0.0164,0.0275,0.0501,0.0011,-0.0066,-0.0013,
25.4160,-0.0164,0.0275,0.0501,0.0011,-0.0066,-0.0013,
25.4170,0.0024,0.0323,0.0102,0.0011,-0.0066,-0.0013,
25.4200,0.0024,0.0323,0.0102,-0.0038,-0.0090,0.0048,
25.4700,0.0024,0.0323,0.0102,-0.0038,-0.0090,0.0048,
25.4710,0.0024,0.0323,0.0102,-0.0038,-0.0090,0.0048,
25.4720,0.0024,0.0323,0.0102,-0.0038,-0.0090,0.0048,
25.4720,0.0024,0.0323,0.0102,-0.0079,-0.0005,0.0003,
25.4730,0.0403,0.0002,0.0129,-0.0079,-0.0005,0.0003,
25.5300,0.0403,0.0002,0.0129,-0.0079,-0.0005,0.0003,
25.5310,0.0403,0.0002,0.0129,-0.0079,-0.0005,0.0003,
25.5320,0.0403,0.0002,0.0129,-0.0079,-0.0005,0.0003,
25.5320,0.0403,0.0002,0.0129,-0.0005,0.0068,-0.0030,
25.5330,0.0373,-0.0266,0.0549,-0.0005,0.0068,-0.0030,
25.5890,0.0373,-0.0266,0.0549,-0.0005,0.0068,-0.0030,
25.5900,0.0373,-0.0266,0.0549,-0.0005,0.0068,-0.0030,
25.5900,0.0373,-0.0266,0.0549,-0.0005,0.0068,-0.0030,
25.5910,0.0373,-0.0266,0.0549,0.0052,0.0028,-0.0021,
25.5910,0.0134,0.0117,0.0210,0.0052,0.0028,-0.0021,
25.6470,0.0134,0.0117,0.0210,0.0052,0.0028,-0.0021,
25.6490,0.0134,0.0117,0.0210,0.0052,0.0028,-0.0021,
25.6500,0.0134,0.0117,0.0210,0.0052,0.0028,-0.0021,
25.6510,0.0300,-0.0499,0.0508,0.0052,0.0028,-0.0021,
25.6520,0.0300,-0.0499,0.0508,0.0161,0.0117,-0.0074,
25.7050,0.0300,-0.0499,0.0508,0.0161,0.0117,-0.0074,
25.7070,0.0300,-0.0499,0.0508,0.0161,0.0117,-0.0074,
25.7090,0.0300,-0.0499,0.0508,0.0161,0.0117,-0.0074,
25.7100,0.0300,-0.0499,0.0508,0.0027,-0.0009,-0.0030,
25.7110,-0.0037,0.0539,-0.0294,0.0027,-0.0009,-0.0030,
25.7640,-0.0037,0.0539,-0.0294,0.0027,-0.0009,-0.0030,
25.7660,-0.0037,0.0539,-0.0294,0.0027,-0.0009,-0.0030,
25.7670,-0.0037,0.0539,-0.0294,0.0027,-0.0009,-0.0030,
25.7680,0.0175,0.0081,-0.0266,0.0027,-0.0009,-0.0030,
25.7690,0.0175,0.0081,-0.0266,-0.0095,0.0011,-0.0021,
25.8220,0.0175,0.0081,-0.0266,-0.0095,0.0011,-0.0021,
25.8240,0.0175,0.0081,-0.0266,-0.0095,0.0011,-0.0021,
25.8260,0.0175,0.0081,-0.0266,-0.0095,0.0011,-0.0021,
25.8270,0.0175,0.0081,-0.0266,-0.0107,-0.0054,-0.0013,
25.8280,0.0026,0.0239,0.0133,-0.0107,-0.0054,-0.0013,
25.8810,0.0026,0.0239,0.0133,-0.0107,-0.0054,-0.0013,
25.8830,0.0026,0.0239,0.0133,-0.0107,-0.0054,-0.0013,
25.8840,0.0026,0.0239,0.0133,-0.0107,-0.0054,-0.0013,
25.8860,0.0026,0.0239,0.0133,0.0084,-0.0078,-0.0021,
25.8870,-0.0100,-0.0380,0.0652,0.0084,-0.0078,-0.0021,
25.9400,-0.0100,-0.0380,0.0652,0.0084,-0.0078,-0.0021,
25.9420,-0.0100,-0.0380,0.0652,0.0084,-0.0078,-0.0021,
25.9430,-0.0100,-0.0380,0.0652,0.0084,-0.0078,-0.0021,
25.9440,-0.0100,-0.0380,0.0652,0.0129,-0.0021,-0.0070,
25.9460,0.0388,0.0133,0.0600,0.0129,-0.0021,-0.0070,
25.9980,0.0388,0.0133,0.0600,0.0129,-0.0021,-0.0070,
