
time,ax,ay,az,wx,wy,wz,
0.0720,0.0000,0.0000,0.0000,0.0000,0.0000,0.0000,
0.0730,0.0000,0.0000,0.0000,0.0000,0.0000,0.0000,
0.0730,0.0000,0.0000,0.0000,0.0000,0.0000,0.0000,
0.0730,0.0000,0.0000,0.0000,0.0000,0.0000,0.0000,
0.0730,0.0000,0.0000,0.0000,0.0000,0.0000,0.0000,
0.1310,0.0000,0.0000,0.0000,0.0000,0.0000,0.0000,
0.1320,0.0000,0.0000,0.0000,0.0000,0.0000,0.0000,
0.1320,0.0000,0.0000,0.0000,0.0000,0.0000,0.0000,
0.1890,0.0000,0.0000,0.0000,0.0000,0.0000,0.0000,
0.1900,0.0000,0.0000,0.0000,0.0000,0.0000,0.0000,
0.1900,0.0000,0.0000,0.0000,0.0000,0.0000,0.0000,
0.1910,0.0000,0.0000,0.0000,0.0035,-0.0094,0.0040,
0.1910,0.0988,-0.0112,0.0518,0.0035,-0.0094,0.0040,
0.2470,0.0988,-0.0112,0.0518,0.0035,-0.0094,0.0040,
0.2480,0.0988,-0.0112,0.0518,0.0035,-0.0094,0.0040,
0.2490,0.0988,-0.0112,0.0518,0.0035,-0.0094,0.0040,
0.2500,0.1393,0.0019,0.0587,0.0035,-0.0094,0.0040,
0.2500,0.1393,0.0019,0.0587,-0.0075,-0.0164,0.0007,
0.3060,0.1393,0.0019,0.0587,-0.0075,-0.0164,0.0007,
0.3070,0.1393,0.0019,0.0587,-0.0075,-0.0164,0.0007,
0.3070,0.1393,0.0019,0.0587,-0.0075,-0.0164,0.0007,
0.3080,0.1393,0.0019,0.0587,-0.0152,-0.0038,0.0027,
0.3080,0.0746,-0.0294,0.0481,-0.0152,-0.0038,0.0027,
0.3650,0.0746,-0.0294,0.0481,-0.0152,-0.0038,0.0027,
0.3660,0.0746,-0.0294,0.0481,-0.0152,-0.0038,0.0027,
0.3670,0.0746,-0.0294,0.0481,-0.0152,-0.0038,0.0027,
0.3670,0.0746,-0.0294,0.0481,-0.0103,-0.0013,0.0072,
0.3680,0.1060,-0.0169,0.0038,-0.0103,-0.0013,0.0072,
0.4250,0.1060,-0.0169,0.0038,-0.0103,-0.0013,0.0072,
0.4260,0.1060,-0.0169,0.0038,-0.0103,-0.0013,0.0072,
0.4260,0.1060,-0.0169,0.0038,-0.0103,-0.0013,0.0072,
0.4270,0.1060,-0.0169,0.0038,-0.0148,0.0109,0.0044,
0.4270,0.0621,-0.0197,-0.0040,-0.0148,0.0109,0.0044,
0.4820,0.0621,-0.0197,-0.0040,-0.0148,0.0109,0.0044,
0.4830,0.0621,-0.0197,-0.0040,-0.0148,0.0109,0.0044,
0.4840,0.0621,-0.0197,-0.0040,-0.0148,0.0109,0.0044,
0.4850,0.0621,-0.0197,-0.0040,-0.0148,0.0101,0.0052,
0.4850,0.0498,-0.0323,0.0343,-0.0148,0.0101,0.0052,
0.5410,0.0498,-0.0323,0.0343,-0.0148,0.0101,0.0052,
0.5410,0.0498,-0.0323,0.0343,-0.0148,0.0101,0.0052,
0.5420,0.0498,-0.0323,0.0343,-0.0148,0.0101,0.0052,
0.5430,0.0498,-0.0323,0.0343,-0.0083,0.0121,0.0019,
0.5430,0.0319,-0.0123,0.0241,-0.0083,0.0121,0.0019,
0.5990,0.0319,-0.0123,0.0241,-0.0083,0.0121,0.0019,
0.6000,0.0319,-0.0123,0.0241,-0.0083,0.0121,0.0019,
0.6010,0.0319,-0.0123,0.0241,-0.0083,0.0121,0.0019,
0.6010,0.0319,-0.0123,0.0241,-0.0063,0.0093,-0.0001,
0.6020,0.0222,-0.0156,0.0287,-0.0063,0.0093,-0.0001,
0.6580,0.0222,-0.0156,0.0287,-0.0063,0.0093,-0.0001,
0.6590,0.0222,-0.0156,0.0287,-0.0063,0.0093,-0.0001,
0.6600,0.0222,-0.0156,0.0287,-0.0063,0.0093,-0.0001,
0.6600,0.0222,-0.0156,0.0287,-0.0014,0.0060,-0.0030,
0.6610,0.0301,0.0061,-0.0039,-0.0014,0.0060,-0.0030,
0.7170,0.0301,0.0061,-0.0039,-0.0014,0.0060,-0.0030,
0.7180,0.0301,0.0061,-0.0039,-0.0014,0.0060,-0.0030,
0.7190,0.0301,0.0061,-0.0039,-0.0014,0.0060,-0.0030,
0.7200,0.0301,0.0061,-0.0039,-0.0046,0.0036,-0.0042,
0.7210,0.0343,-0.0060,0.0001,-0.0046,0.0036,-0.0042,
0.7750,0.0343,-0.0060,0.0001,-0.0046,0.0036,-0.0042,
0.7760,0.0343,-0.0060,0.0001,-0.0046,0.0036,-0.0042,
0.7760,0.0343,-0.0060,0.0001,-0.0046,0.0036,-0.0042,
0.7760,0.0265,-0.0069,-0.0220,-0.0046,0.0036,-0.0042,
0.7770,0.0265,-0.0069,-0.0220,-0.0046,0.0023,-0.0021,
0.8330,0.0265,-0.0069,-0.0220,-0.0046,0.0023,-0.0021,
0.8340,0.0265,-0.0069,-0.0220,-0.0046,0.0023,-0.0021,
0.8340,0.0265,-0.0069,-0.0220,-0.0046,0.0023,-0.0021,
0.8350,0.0265,-0.0069,-0.0220,-0.0042,0.0024,-0.0013,
0.8350,0.0305,-0.0148,-0.0017,-0.0042,0.0024,-0.0013,
0.8930,0.0305,-0.0148,-0.0017,-0.0042,0.0024,-0.0013,
0.8930,0.0305,-0.0148,-0.0017,-0.0042,0.0024,-0.0013,
0.8930,0.0305,-0.0148,-0.0017,-0.0042,0.0024,-0.0013,
0.8940,0.0305,-0.0148,-0.0017,-0.0022,0.0048,-0.0005,
0.8940,0.0186,-0.0125,0.0097,-0.0022,0.0048,-0.0005,
0.9510,0.0186,-0.0125,0.0097,-0.0022,0.0048,-0.0005,
0.9520,0.0186,-0.0125,0.0097,-0.0022,0.0048,-0.0005,
0.9520,0.0186,-0.0125,0.0097,-0.0022,0.0048,-0.0005,
0.9530,0.0186,-0.0125,0.0097,0.0019,0.0024,-0.0025,
0.9530,0.0127,0.0054,0.0154,0.0019,0.0024,-0.0025,
1.0100,0.0127,0.0054,0.0154,0.0019,0.0024,-0.0025,
1.0110,0.0127,0.0054,0.0154,0.0019,0.0024,-0.0025,
1.0120,0.0127,0.0054,0.0154,0.0019,0.0024,-0.0025,
1.0120,0.0127,0.0054,0.0154,0.0080,0.0036,-0.0038,
1.0130,0.0123,-0.0484,-0.0048,0.0080,0.0036,-0.0038,
1.0680,0.0123,-0.0484,-0.0048,0.0080,0.0036,-0.0038,
1.0690,0.0123,-0.0484,-0.0048,0.0080,0.0036,-0.0038,
1.0690,0.0123,-0.0484,-0.0048,0.0080,0.0036,-0.0038,
1.0700,0.0123,-0.0484,-0.0048,0.0174,-0.0029,-0.0050,
1.0700,-0.0374,-0.0041,-0.0254,0.0174,-0.0029,-0.0050,
1.1270,0.0134,0.0058,0.0336,0.0174,-0.0029,-0.0050,
1.1290,0.0134,0.0058,0.0336,0.0174,-0.0029,-0.0050,
1.1290,0.0134,0.0058,0.0336,0.0174,-0.0029,-0.0050,
1.1300,0.0134,0.0058,0.0336,0.0174,-0.0029,-0.0050,
1.1300,0.0134,0.0058,0.0336,0.0137,-0.0078,-0.0030,
1.1850,0.0134,0.0058,0.0336,0.0137,-0.0078,-0.0030,
1.1860,0.0134,0.0058,0.0336,0.0137,-0.0078,-0.0030,
1.1870,0.0134,0.0058,0.0336,0.0137,-0.0078,-0.0030,
1.1880,-0.0000,0.0087,0.0189,0.0137,-0.0078,-0.0030,
1.1880,-0.0000,0.0087,0.0189,0.0113,-0.0066,-0.0009,
1.2430,-0.0000,0.0087,0.0189,0.0113,-0.0066,-0.0009,
1.2450,-0.0000,0.0087,0.0189,0.0113,-0.0066,-0.0009,
1.2460,-0.0000,0.0087,0.0189,0.0113,-0.0066,-0.0009,
1.2460,-0.0000,0.0087,0.0189,0.0121,-0.0086,-0.0001,
1.2470,0.0105,-0.0277,0.0146,0.0121,-0.0086,-0.0001,
1.3030,0.0156,0.0143,0.0466,0.0121,-0.0086,-0.0001,
1.3050,0.0156,0.0143,0.0466,0.0121,-0.0086,-0.0001,
1.3050,0.0156,0.0143,0.0466,0.0121,-0.0086,-0.0001,
1.3060,0.0156,0.0143,0.0466,0.0121,-0.0086,-0.0001,
1.3060,0.0156,0.0143,0.0466,0.0125,-0.0066,0.0023,
1.3600,0.0156,0.0143,0.0466,0.0125,-0.0066,0.0023,
1.3610,0.0156,0.0143,0.0466,0.0125,-0.0066,0.0023,
1.3620,0.0156,0.0143,0.0466,0.0125,-0.0066,0.0023,
1.3630,0.0156,0.0143,0.0466,0.0108,0.0003,0.0003,
1.3630,0.0066,0.0027,0.0377,0.0108,0.0003,0.0003,
1.4190,0.0066,0.0027,0.0377,0.0108,0.0003,0.0003,
1.4200,0.0066,0.0027,0.0377,0.0108,0.0003,0.0003,
1.4210,0.0066,0.0027,0.0377,0.0108,0.0003,0.0003,
1.4210,0.0066,0.0027,0.0377,0.0141,-0.0062,0.0007,
1.4220,0.0158,-0.0195,0.0510,0.0141,-0.0062,0.0007,
1.4790,0.0158,-0.0195,0.0510,0.0141,-0.0062,0.0007,
1.4800,0.0158,-0.0195,0.0510,0.0141,-0.0062,0.0007,
1.4810,0.0158,-0.0195,0.0510,0.0141,-0.0062,0.0007,
1.4810,0.0158,-0.0195,0.0510,0.0198,0.0036,-0.0030,
1.4820,0.0146,0.0068,-0.0026,0.0198,0.0036,-0.0030,
1.5360,0.0146,0.0068,-0.0026,0.0198,0.0036,-0.0030,
1.5370,0.0146,0.0068,-0.0026,0.0198,0.0036,-0.0030,
1.5380,0.0146,0.0068,-0.0026,0.0198,0.0036,-0.0030,
1.5380,0.0146,0.0068,-0.0026,0.0153,0.0060,-0.0025,
1.5390,0.0203,0.0042,-0.0183,0.0153,0.0060,-0.0025,
1.5950,0.0203,0.0042,-0.0183,0.0153,0.0060,-0.0025,
1.5960,0.0203,0.0042,-0.0183,0.0153,0.0060,-0.0025,
1.5960,0.0203,0.0042,-0.0183,0.0153,0.0060,-0.0025,
1.5970,0.0203,0.0042,-0.0183,0.0178,0.0056,-0.0025,
1.5980,-0.0008,0.0093,-0.0112,0.0178,0.0056,-0.0025,
1.6530,-0.0008,0.0093,-0.0112,0.0178,0.0056,-0.0025,
1.6540,-0.0008,0.0093,-0.0112,0.0178,0.0056,-0.0025,
1.6550,-0.0008,0.0093,-0.0112,0.0178,0.0056,-0.0025,
1.6560,-0.0008,0.0093,-0.0112,0.0157,0.0011,-0.0021,
1.6560,-0.0026,-0.0013,0.0059,0.0157,0.0011,-0.0021,
1.7120,-0.0026,-0.0013,0.0059,0.0157,0.0011,-0.0021,
1.7130,-0.0026,-0.0013,0.0059,0.0157,0.0011,-0.0021,
1.7140,-0.0026,-0.0013,0.0059,0.0157,0.0011,-0.0021,
1.7150,-0.0026,-0.0013,0.0059,0.0178,-0.0025,-0.0001,
1.7160,0.0319,0.0056,-0.0143,0.0178,-0.0025,-0.0001,
1.7710,0.0319,0.0056,-0.0143,0.0178,-0.0025,-0.0001,
1.7720,0.0319,0.0056,-0.0143,0.0178,-0.0025,-0.0001,
1.7720,0.0319,0.0056,-0.0143,0.0178,-0.0025,-0.0001,
1.7730,0.0319,0.0056,-0.0143,0.0206,0.0028,-0.0025,
1.7730,0.0118,0.0036,-0.0241,0.0206,0.0028,-0.0025,
1.8300,0.0118,0.0036,-0.0241,0.0206,0.0028,-0.0025,
1.8310,0.0118,0.0036,-0.0241,0.0206,0.0028,-0.0025,
1.8320,0.0118,0.0036,-0.0241,0.0206,0.0028,-0.0025,
1.8330,0.0118,0.0036,-0.0241,0.0190,0.0028,-0.0030,
1.8330,0.0054,0.0287,-0.0230,0.0190,0.0028,-0.0030,
1.8890,0.0054,0.0287,-0.0230,0.0190,0.0028,-0.0030,
1.8900,0.0054,0.0287,-0.0230,0.0190,0.0028,-0.0030,
1.8900,0.0054,0.0287,-0.0230,0.0190,0.0028,-0.0030,
1.8910,-0.0286,0.0029,0.0188,0.0190,0.0028,-0.0030,
1.8910,-0.0286,0.0029,0.0188,0.0088,0.0011,-0.0042,
1.9460,-0.0286,0.0029,0.0188,0.0088,0.0011,-0.0042,
1.9470,-0.0286,0.0029,0.0188,0.0088,0.0011,-0.0042,
1.9480,-0.0286,0.0029,0.0188,0.0088,0.0011,-0.0042,
1.9480,-0.0211,0.0306,0.0127,0.0088,0.0011,-0.0042,
1.9490,-0.0211,0.0306,0.0127,0.0052,-0.0050,-0.0009,
2.0070,-0.0211,0.0306,0.0127,0.0052,-0.0050,-0.0009,
2.0080,-0.0211,0.0306,0.0127,0.0052,-0.0050,-0.0009,
2.0080,-0.0211,0.0306,0.0127,0.0052,-0.0050,-0.0009,
2.0090,-0.0211,0.0306,0.0127,-0.0005,-0.0168,0.0027,
2.0090,0.0278,0.0029,0.0228,-0.0005,-0.0168,0.0027,
2.0640,0.0278,0.0029,0.0228,-0.0005,-0.0168,0.0027,
2.0650,0.0278,0.0029,0.0228,-0.0005,-0.0168,0.0027,
2.0660,0.0278,0.0029,0.0228,-0.0005,-0.0168,0.0027,
2.0660,0.0278,0.0029,0.0228,-0.0018,-0.0123,-0.0001,
2.0670,0.0291,-0.0110,0.0542,-0.0018,-0.0123,-0.0001,
2.1220,0.0291,-0.0110,0.0542,-0.0018,-0.0123,-0.0001,
2.1230,0.0291,-0.0110,0.0542,-0.0018,-0.0123,-0.0001,
2.1240,0.0291,-0.0110,0.0542,-0.0018,-0.0123,-0.0001,
2.1240,0.0291,-0.0110,0.0542,-0.0001,-0.0066,-0.0001,
2.1250,-0.0141,-0.0076,0.0201,-0.0001,-0.0066,-0.0001,
2.1810,-0.0141,-0.0076,0.0201,-0.0001,-0.0066,-0.0001,
2.1820,-0.0141,-0.0076,0.0201,-0.0001,-0.0066,-0.0001,
2.1820,-0.0141,-0.0076,0.0201,-0.0001,-0.0066,-0.0001,
2.1830,-0.0141,-0.0076,0.0201,-0.0014,-0.0090,-0.0009,
2.1830,0.0275,0.0123,0.0322,-0.0014,-0.0090,-0.0009,
2.2390,0.0275,0.0123,0.0322,-0.0014,-0.0090,-0.0009,
2.2400,0.0275,0.0123,0.0322,-0.0014,-0.0090,-0.0009,
2.2410,0.0275,0.0123,0.0322,-0.0014,-0.0090,-0.0009,
2.2410,0.0275,0.0123,0.0322,-0.0071,-0.0066,-0.0025,
2.2420,0.0120,0.0135,0.0155,-0.0071,-0.0066,-0.0025,
2.2980,0.0120,0.0135,0.0155,-0.0071,-0.0066,-0.0025,
2.2990,0.0120,0.0135,0.0155,-0.0071,-0.0066,-0.0025,
2.2990,0.0120,0.0135,0.0155,-0.0071,-0.0066,-0.0025,
2.3000,0.0120,0.0135,0.0155,-0.0095,-0.0025,0.0023,
2.3000,0.0259,-0.0136,0.0287,-0.0095,-0.0025,0.0023,
2.3560,0.0259,-0.0136,0.0287,-0.0095,-0.0025,0.0023,
2.3570,0.0259,-0.0136,0.0287,-0.0095,-0.0025,0.0023,
2.3580,0.0259,-0.0136,0.0287,-0.0095,-0.0025,0.0023,
2.3590,0.0353,-0.0192,0.0205,-0.0095,-0.0025,0.0023,
2.3590,0.0353,-0.0192,0.0205,-0.0091,0.0056,0.0032,
2.4160,0.0353,-0.0192,0.0205,-0.0091,0.0056,0.0032,
2.4170,0.0353,-0.0192,0.0205,-0.0091,0.0056,0.0032,
2.4180,0.0353,-0.0192,0.0205,-0.0091,0.0056,0.0032,
2.4190,0.0353,-0.0192,0.0205,-0.0058,0.0085,0.0003,
2.4190,-0.0020,0.0045,0.0079,-0.0058,0.0085,0.0003,
2.4740,-0.0020,0.0045,0.0079,-0.0058,0.0085,0.0003,
2.4750,-0.0020,0.0045,0.0079,-0.0058,0.0085,0.0003,
2.4750,-0.0020,0.0045,0.0079,-0.0058,0.0085,0.0003,
2.4760,-0.0020,0.0045,0.0079,-0.0034,0.0089,0.0007,
2.4770,0.0009,-0.0118,0.0313,-0.0034,0.0089,0.0007,
2.5320,0.0009,-0.0118,0.0313,-0.0034,0.0089,0.0007,
2.5330,0.0009,-0.0118,0.0313,-0.0034,0.0089,0.0007,
2.5330,0.0009,-0.0118,0.0313,-0.0034,0.0089,0.0007,
2.5340,0.0009,-0.0118,0.0313,-0.0001,0.0113,-0.0001,
2.5350,-0.0275,-0.0041,0.0142,-0.0001,0.0113,-0.0001,
2.5910,-0.0275,-0.0041,0.0142,-0.0001,0.0113,-0.0001,
2.5920,-0.0275,-0.0041,0.0142,-0.0001,0.0113,-0.0001,
2.5920,-0.0275,-0.0041,0.0142,-0.0001,0.0113,-0.0001,
2.5930,-0.0275,-0.0041,0.0142,-0.0034,0.0028,0.0023,
2.5940,-0.0081,-0.0019,-0.0024,-0.0034,0.0028,0.0023,
2.6490,-0.0081,-0.0019,-0.0024,-0.0034,0.0028,0.0023,
2.6500,-0.0081,-0.0019,-0.0024,-0.0034,0.0028,0.0023,
2.6510,-0.0081,-0.0019,-0.0024,-0.0034,0.0028,0.0023,
2.6520,-0.0081,-0.0019,-0.0024,-0.0009,-0.0005,0.0007,
2.6520,-0.0252,0.0061,-0.0069,-0.0009,-0.0005,0.0007,
2.7090,-0.0252,0.0061,-0.0069,-0.0009,-0.0005,0.0007,
2.7100,-0.0252,0.0061,-0.0069,-0.0009,-0.0005,0.0007,
2.7100,-0.0252,0.0061,-0.0069,-0.0009,-0.0005,0.0007,
2.7110,-0.0252,0.0061,-0.0069,-0.0022,-0.0086,-0.0005,
2.7120,-0.0096,-0.0075,0.0306,-0.0022,-0.0086,-0.0005,
2.7690,-0.0096,-0.0075,0.0306,-0.0022,-0.0086,-0.0005,
2.7700,-0.0096,-0.0075,0.0306,-0.0022,-0.0086,-0.0005,
2.7700,-0.0096,-0.0075,0.0306,-0.0022,-0.0086,-0.0005,
2.7710,-0.0096,-0.0075,0.0306,0.0011,-0.0164,-0.0001,
2.7710,0.0138,-0.0059,0.0169,0.0011,-0.0164,-0.0001,
2.8260,0.0138,-0.0059,0.0169,0.0011,-0.0164,-0.0001,
2.8280,0.0138,-0.0059,0.0169,0.0011,-0.0164,-0.0001,
2.8290,0.0138,-0.0059,0.0169,0.0011,-0.0164,-0.0001,
2.8300,0.0138,-0.0059,0.0169,0.0043,-0.0176,-0.0001,
2.8310,0.0205,-0.0007,0.0156,0.0043,-0.0176,-0.0001,
2.8860,0.0536,0.0067,0.0139,0.0043,-0.0176,-0.0001,
2.8880,0.0536,0.0067,0.0139,0.0043,-0.0176,-0.0001,
2.8890,0.0536,0.0067,0.0139,0.0043,-0.0176,-0.0001,
2.8900,0.0536,0.0067,0.0139,0.0043,-0.0176,-0.0001,
2.8920,0.0536,0.0067,0.0139,0.0043,-0.0119,0.0003,
2.9430,0.0536,0.0067,0.0139,0.0043,-0.0119,0.0003,
2.9450,0.0536,0.0067,0.0139,0.0043,-0.0119,0.0003,
2.9460,0.0536,0.0067,0.0139,0.0043,-0.0119,0.0003,
2.9470,0.0536,0.0067,0.0139,0.0031,-0.0029,-0.0005,
2.9470,0.0254,-0.0037,0.0209,0.0031,-0.0029,-0.0005,
3.0020,0.0254,-0.0037,0.0209,0.0031,-0.0029,-0.0005,
3.0050,0.0254,-0.0037,0.0209,0.0031,-0.0029,-0.0005,
3.0070,0.0254,-0.0037,0.0209,0.0031,-0.0029,-0.0005,
3.0080,0.0254,-0.0037,0.0209,0.0035,0.0036,-0.0005,
3.0090,-0.0065,0.0161,0.0035,0.0035,0.0036,-0.0005,
3.0610,-0.0065,0.0161,0.0035,0.0035,0.0036,-0.0005,
3.0630,-0.0065,0.0161,0.0035,0.0035,0.0036,-0.0005,
3.0640,-0.0065,0.0161,0.0035,0.0035,0.0036,-0.0005,
3.0660,-0.0065,0.0161,0.0035,0.0023,0.0032,-0.0005,
3.0670,0.0099,-0.0104,0.0045,0.0023,0.0032,-0.0005,
3.1180,0.0099,-0.0104,0.0045,0.0023,0.0032,-0.0005,
3.1190,0.0099,-0.0104,0.0045,0.0023,0.0032,-0.0005,
3.1200,0.0099,-0.0104,0.0045,0.0023,0.0032,-0.0005,
3.1210,0.0099,-0.0104,0.0045,0.0043,0.0007,0.0015,
3.1210,0.0200,0.0087,-0.0023,0.0043,0.0007,0.0015,
3.1780,0.0200,0.0087,-0.0023,0.0043,0.0007,0.0015,
3.1800,0.0200,0.0087,-0.0023,0.0043,0.0007,0.0015,
3.1810,0.0200,0.0087,-0.0023,0.0043,0.0007,0.0015,
3.1820,0.0200,0.0087,-0.0023,0.0052,0.0093,-0.0009,
3.1830,0.0134,-0.0210,0.0167,0.0052,0.0093,-0.0009,
3.2360,0.0134,-0.0210,0.0167,0.0052,0.0093,-0.0009,
3.2380,0.0134,-0.0210,0.0167,0.0052,0.0093,-0.0009,
3.2390,0.0134,-0.0210,0.0167,0.0052,0.0093,-0.0009,
3.2400,0.0134,-0.0210,0.0167,0.0100,0.0081,-0.0046,
3.2410,-0.0401,0.0127,-0.0144,0.0100,0.0081,-0.0046,
3.2950,-0.0401,0.0127,-0.0144,0.0100,0.0081,-0.0046,
3.2960,-0.0401,0.0127,-0.0144,0.0100,0.0081,-0.0046,
3.2960,-0.0401,0.0127,-0.0144,0.0100,0.0081,-0.0046,
3.2970,-0.0401,0.0127,-0.0144,0.0051,-0.0025,-0.0025,
3.2970,0.0090,0.0125,0.0344,0.0051,-0.0025,-0.0025,
3.3530,0.0090,0.0125,0.0344,0.0051,-0.0025,-0.0025,
3.3560,0.0090,0.0125,0.0344,0.0051,-0.0025,-0.0025,
3.3570,0.0090,0.0125,0.0344,0.0051,-0.0025,-0.0025,
3.3580,0.0090,0.0125,0.0344,0.0035,-0.0017,-0.0005,
3.3600,0.0098,0.0106,0.0017,0.0035,-0.0017,-0.0005,
3.4120,0.0098,0.0106,0.0017,0.0035,-0.0017,-0.0005,
3.4150,0.0098,0.0106,0.0017,0.0035,-0.0017,-0.0005,
3.4160,0.0098,0.0106,0.0017,0.0035,-0.0017,-0.0005,
3.4170,0.0098,0.0106,0.0017,-0.0001,0.0011,-0.0005,
3.4190,0.0188,0.0045,0.0249,-0.0001,0.0011,-0.0005,
3.4700,0.0188,0.0045,0.0249,-0.0001,0.0011,-0.0005,
3.4730,0.0188,0.0045,0.0249,-0.0001,0.0011,-0.0005,
3.4740,0.0188,0.0045,0.0249,-0.0001,0.0011,-0.0005,
3.4750,0.0188,0.0045,0.0249,-0.0034,0.0040,-0.0025,
3.4770,-0.0020,0.0053,0.0221,-0.0034,0.0040,-0.0025,
3.5280,-0.0020,0.0053,0.0221,-0.0034,0.0040,-0.0025,
3.5300,-0.0020,0.0053,0.0221,-0.0034,0.0040,-0.0025,
3.5320,-0.0020,0.0053,0.0221,-0.0034,0.0040,-0.0025,
3.5330,-0.0020,0.0053,0.0221,-0.0067,0.0032,-0.0030,
3.5340,0.0165,0.0017,0.0257,-0.0067,0.0032,-0.0030,
3.5880,0.0165,0.0017,0.0257,-0.0067,0.0032,-0.0030,
3.5900,0.0165,0.0017,0.0257,-0.0067,0.0032,-0.0030,
3.5920,0.0165,0.0017,0.0257,-0.0067,0.0032,-0.0030,
3.5930,0.0165,0.0017,0.0257,-0.0038,0.0015,-0.0021,
3.5950,0.0000,0.0056,0.0054,-0.0038,0.0015,-0.0021,
3.6460,0.0000,0.0056,0.0054,-0.0038,0.0015,-0.0021,
3.6480,0.0000,0.0056,0.0054,-0.0038,0.0015,-0.0021,
3.6500,0.0000,0.0056,0.0054,-0.0038,0.0015,-0.0021,
3.6510,0.0000,0.0056,0.0054,-0.0071,0.0040,-0.0038,
3.6520,-0.0146,-0.0080,0.0078,-0.0071,0.0040,-0.0038,
3.7050,-0.0146,-0.0080,0.0078,-0.0071,0.0040,-0.0038,
3.7070,-0.0146,-0.0080,0.0078,-0.0071,0.0040,-0.0038,
3.7080,-0.0146,-0.0080,0.0078,-0.0071,0.0040,-0.0038,
3.7100,-0.0146,-0.0080,0.0078,-0.0062,-0.0001,-0.0025,
3.7110,0.0075,0.0075,0.0038,-0.0062,-0.0001,-0.0025,
3.7630,0.0075,0.0075,0.0038,-0.0062,-0.0001,-0.0025,
3.7660,0.0075,0.0075,0.0038,-0.0062,-0.0001,-0.0025,
3.7670,0.0075,0.0075,0.0038,-0.0062,-0.0001,-0.0025,
3.7680,0.0075,0.0075,0.0038,-0.0075,-0.0033,-0.0042,
3.7690,-0.0010,-0.0056,0.0093,-0.0075,-0.0033,-0.0042,
3.8230,0.0143,-0.0046,0.0166,-0.0075,-0.0033,-0.0042,
3.8250,0.0143,-0.0046,0.0166,-0.0075,-0.0033,-0.0042,
3.8260,0.0143,-0.0046,0.0166,-0.0075,-0.0033,-0.0042,
3.8270,0.0143,-0.0046,0.0166,-0.0075,-0.0033,-0.0042,
3.8280,0.0143,-0.0046,0.0166,-0.0067,-0.0058,-0.0013,
3.8810,0.0143,-0.0046,0.0166,-0.0067,-0.0058,-0.0013,
3.8830,0.0143,-0.0046,0.0166,-0.0067,-0.0058,-0.0013,
3.8840,0.0143,-0.0046,0.0166,-0.0067,-0.0058,-0.0013,
3.8860,0.0143,-0.0046,0.0166,-0.0026,-0.0033,-0.0009,
3.8870,0.0205,0.0051,-0.0108,-0.0026,-0.0033,-0.0009,
3.9400,0.0205,0.0051,-0.0108,-0.0026,-0.0033,-0.0009,
3.9430,0.0205,0.0051,-0.0108,-0.0026,-0.0033,-0.0009,
3.9440,0.0205,0.0051,-0.0108,-0.0026,-0.0033,-0.0009,
3.9460,0.0153,-0.0083,0.0099,-0.0026,-0.0033,-0.0009,
3.9470,0.0153,-0.0083,0.0099,-0.0034,-0.0001,-0.0025,
3.9970,0.0153,-0.0083,0.0099,-0.0034,-0.0001,-0.0025,
4.0000,0.0153,-0.0083,0.0099,-0.0034,-0.0001,-0.0025,
4.0010,0.0153,-0.0083,0.0099,-0.0034,-0.0001,-0.0025,
4.0020,0.0153,-0.0083,0.0099,0.0007,0.0060,-0.0009,
4.0040,0.0023,0.0054,-0.0011,0.0007,0.0060,-0.0009,
4.0570,0.0023,0.0054,-0.0011,0.0007,0.0060,-0.0009,
4.0590,0.0023,0.0054,-0.0011,0.0007,0.0060,-0.0009,
4.0610,0.0023,0.0054,-0.0011,0.0007,0.0060,-0.0009,
4.0620,0.0023,0.0054,-0.0011,-0.0030,0.0093,-0.0005,
4.0630,0.0195,0.0068,-0.0119,-0.0030,0.0093,-0.0005,
4.1150,0.0195,0.0068,-0.0119,-0.0030,0.0093,-0.0005,
4.1170,0.0195,0.0068,-0.0119,-0.0030,0.0093,-0.0005,
4.1190,0.0195,0.0068,-0.0119,-0.0030,0.0093,-0.0005,
4.1200,-0.0209,-0.0018,0.0118,-0.0030,0.0093,-0.0005,
4.1210,-0.0209,-0.0018,0.0118,-0.0022,0.0142,-0.0017,
4.1720,-0.0209,-0.0018,0.0118,-0.0022,0.0142,-0.0017,
4.1740,-0.0209,-0.0018,0.0118,-0.0022,0.0142,-0.0017,
4.1770,-0.0209,-0.0018,0.0118,-0.0022,0.0142,-0.0017,
4.1780,-0.0209,-0.0018,0.0118,-0.0018,0.0134,-0.0013,
4.1790,-0.0173,-0.0129,0.0124,-0.0018,0.0134,-0.0013,
4.2360,-0.0173,-0.0129,0.0124,-0.0018,0.0134,-0.0013,
4.2380,-0.0173,-0.0129,0.0124,-0.0018,0.0134,-0.0013,
4.2390,-0.0173,-0.0129,0.0124,-0.0018,0.0134,-0.0013,
4.2400,0.0006,0.0112,0.0184,-0.0018,0.0134,-0.0013,
4.2420,0.0006,0.0112,0.0184,0.0011,0.0081,0.0011,
4.2910,0.0006,0.0112,0.0184,0.0011,0.0081,0.0011,
4.2930,0.0006,0.0112,0.0184,0.0011,0.0081,0.0011,
4.2940,0.0006,0.0112,0.0184,0.0011,0.0081,0.0011,
4.2960,0.0006,0.0112,0.0184,0.0035,0.0085,0.0003,
4.2970,0.0091,-0.0267,0.0236,0.0035,0.0085,0.0003,
4.3490,0.0091,-0.0267,0.0236,0.0035,0.0085,0.0003,
4.3510,0.0091,-0.0267,0.0236,0.0035,0.0085,0.0003,
4.3520,0.0091,-0.0267,0.0236,0.0035,0.0085,0.0003,
4.3540,-0.0344,0.0153,-0.0135,0.0035,0.0085,0.0003,
4.3550,-0.0344,0.0153,-0.0135,0.0125,0.0068,-0.0009,
4.4080,-0.0344,0.0153,-0.0135,0.0125,0.0068,-0.0009,
4.4100,-0.0344,0.0153,-0.0135,0.0125,0.0068,-0.0009,
4.4110,-0.0344,0.0153,-0.0135,0.0125,0.0068,-0.0009,
4.4120,0.0142,0.0212,0.0379,0.0125,0.0068,-0.0009,
4.4140,0.0142,0.0212,0.0379,0.0064,-0.0029,-0.0013,
4.4670,0.0142,0.0212,0.0379,0.0064,-0.0029,-0.0013,
4.4700,0.0142,0.0212,0.0379,0.0064,-0.0029,-0.0013,
4.4710,0.0142,0.0212,0.0379,0.0064,-0.0029,-0.0013,
4.4720,0.0142,0.0212,0.0379,0.0047,-0.0050,0.0007,
4.4730,0.0005,0.0205,-0.0082,0.0047,-0.0050,0.0007,
4.5250,0.0005,0.0205,-0.0082,0.0047,-0.0050,0.0007,
4.5270,0.0005,0.0205,-0.0082,0.0047,-0.0050,0.0007,
4.5280,0.0005,0.0205,-0.0082,0.0047,-0.0050,0.0007,
4.5300,0.0005,0.0205,-0.0082,0.0015,-0.0062,0.0027,
4.5310,0.0250,-0.0159,-0.0139,0.0015,-0.0062,0.0027,
4.5830,0.0250,-0.0159,-0.0139,0.0015,-0.0062,0.0027,
4.5860,0.0250,-0.0159,-0.0139,0.0015,-0.0062,0.0027,
4.5870,0.0250,-0.0159,-0.0139,0.0015,-0.0062,0.0027,
4.5880,0.0263,-0.0029,-0.0108,0.0015,-0.0062,0.0027,
4.5890,0.0263,-0.0029,-0.0108,-0.0009,-0.0005,0.0003,
4.6420,0.0263,-0.0029,-0.0108,-0.0009,-0.0005,0.0003,
4.6450,0.0263,-0.0029,-0.0108,-0.0009,-0.0005,0.0003,
4.6460,0.0263,-0.0029,-0.0108,-0.0009,-0.0005,0.0003,
4.6480,0.0263,-0.0029,-0.0108,-0.0030,0.0068,-0.0021,
4.6490,0.0134,-0.0061,-0.0086,-0.0030,0.0068,-0.0021,
4.7010,0.0134,-0.0061,-0.0086,-0.0030,0.0068,-0.0021,
4.7030,0.0134,-0.0061,-0.0086,-0.0030,0.0068,-0.0021,
4.7040,0.0134,-0.0061,-0.0086,-0.0030,0.0068,-0.0021,
4.7060,0.0134,-0.0061,-0.0086,0.0015,-0.0025,-0.0009,
4.7070,0.0097,-0.0131,0.0050,0.0015,-0.0025,-0.0009,
4.7590,0.0097,-0.0131,0.0050,0.0015,-0.0025,-0.0009,
4.7610,0.0097,-0.0131,0.0050,0.0015,-0.0025,-0.0009,
4.7630,0.0097,-0.0131,0.0050,0.0015,-0.0025,-0.0009,
4.7650,0.0045,-0.0029,-0.0003,0.0015,-0.0025,-0.0009,
4.7660,0.0045,-0.0029,-0.0003,0.0031,0.0007,-0.0017,
4.8170,0.0045,-0.0029,-0.0003,0.0031,0.0007,-0.0017,
4.8200,0.0045,-0.0029,-0.0003,0.0031,0.0007,-0.0017,
4.8220,0.0045,-0.0029,-0.0003,0.0031,0.0007,-0.0017,
4.8230,0.0045,-0.0029,-0.0003,0.0076,-0.0033,-0.0009,
4.8250,0.0096,0.0008,-0.0178,0.0076,-0.0033,-0.0009,
4.8760,0.0096,0.0008,-0.0178,0.0076,-0.0033,-0.0009,
4.8780,0.0096,0.0008,-0.0178,0.0076,-0.0033,-0.0009,
4.8790,0.0096,0.0008,-0.0178,0.0076,-0.0033,-0.0009,
4.8810,0.0072,0.0026,0.0258,0.0076,-0.0033,-0.0009,
4.8820,0.0072,0.0026,0.0258,0.0060,-0.0062,-0.0021,
4.9350,0.0072,0.0026,0.0258,0.0060,-0.0062,-0.0021,
4.9370,0.0072,0.0026,0.0258,0.0060,-0.0062,-0.0021,
4.9380,0.0072,0.0026,0.0258,0.0060,-0.0062,-0.0021,
4.9390,0.0072,0.0026,0.0258,0.0117,-0.0074,-0.0013,
4.9410,0.0203,0.0031,0.0299,0.0117,-0.0074,-0.0013,
4.9930,0.0203,0.0031,0.0299,0.0117,-0.0074,-0.0013,
4.9960,0.0203,0.0031,0.0299,0.0117,-0.0074,-0.0013,
4.9970,0.0203,0.0031,0.0299,0.0117,-0.0074,-0.0013,
4.9980,0.0203,0.0031,0.0299,0.0121,-0.0046,-0.0017,
4.9990,0.0206,0.0220,-0.0059,0.0121,-0.0046,-0.0017,
5.0520,0.0206,0.0220,-0.0059,0.0121,-0.0046,-0.0017,
5.0550,0.0206,0.0220,-0.0059,0.0121,-0.0046,-0.0017,
5.0560,0.0206,0.0220,-0.0059,0.0121,-0.0046,-0.0017,
5.0570,0.0206,0.0220,-0.0059,0.0100,-0.0021,-0.0017,
5.0590,0.0122,0.0182,-0.0208,0.0100,-0.0021,-0.0017,
5.1100,0.0122,0.0182,-0.0208,0.0100,-0.0021,-0.0017,
5.1120,0.0122,0.0182,-0.0208,0.0100,-0.0021,-0.0017,
5.1130,0.0122,0.0182,-0.0208,0.0100,-0.0021,-0.0017,
5.1150,0.0122,0.0182,-0.0208,0.0039,0.0020,-0.0021,
5.1160,0.0069,0.0222,-0.0157,0.0039,0.0020,-0.0021,
5.1690,0.0069,0.0222,-0.0157,0.0039,0.0020,-0.0021,
5.1710,0.0069,0.0222,-0.0157,0.0039,0.0020,-0.0021,
5.1720,0.0069,0.0222,-0.0157,0.0039,0.0020,-0.0021,
5.1730,0.0069,0.0222,-0.0157,0.0015,0.0003,-0.0017,
5.1750,0.0041,0.0008,0.0003,0.0015,0.0003,-0.0017,
5.2280,0.0041,0.0008,0.0003,0.0015,0.0003,-0.0017,
5.2310,0.0041,0.0008,0.0003,0.0015,0.0003,-0.0017,
5.2320,0.0041,0.0008,0.0003,0.0015,0.0003,-0.0017,
5.2360,-0.0111,-0.0062,-0.0110,0.0015,0.0003,-0.0017,
5.2370,-0.0111,-0.0062,-0.0110,0.0015,0.0003,-0.0017,
5.2870,-0.0111,-0.0062,-0.0110,0.0015,0.0003,-0.0017,
5.2890,-0.0111,-0.0062,-0.0110,0.0015,0.0003,-0.0017,
5.2910,-0.0111,-0.0062,-0.0110,0.0015,0.0003,-0.0017,
5.2920,0.0196,0.0068,-0.0059,0.0015,0.0003,-0.0017,
5.2930,0.0196,0.0068,-0.0059,0.0039,-0.0042,-0.0001,
5.3450,0.0196,0.0068,-0.0059,0.0039,-0.0042,-0.0001,
5.3470,0.0196,0.0068,-0.0059,0.0039,-0.0042,-0.0001,
5.3490,0.0196,0.0068,-0.0059,0.0039,-0.0042,-0.0001,
5.3500,0.0152,-0.0127,0.0208,0.0039,-0.0042,-0.0001,
5.3510,0.0152,-0.0127,0.0208,0.0048,0.0036,-0.0017,
5.4030,0.0152,-0.0127,0.0208,0.0048,0.0036,-0.0017,
5.4060,0.0152,-0.0127,0.0208,0.0048,0.0036,-0.0017,
5.4070,0.0152,-0.0127,0.0208,0.0048,0.0036,-0.0017,
5.4090,0.0152,-0.0127,0.0208,0.0100,0.0085,-0.0038,
5.4100,-0.0397,0.0001,-0.0171,0.0100,0.0085,-0.0038,
5.4620,-0.0397,0.0001,-0.0171,0.0100,0.0085,-0.0038,
5.4640,-0.0397,0.0001,-0.0171,0.0100,0.0085,-0.0038,
5.4660,-0.0397,0.0001,-0.0171,0.0100,0.0085,-0.0038,
5.4670,0.0278,0.0193,0.0055,0.0100,0.0085,-0.0038,
5.4680,0.0278,0.0193,0.0055,0.0088,-0.0013,-0.0025,
5.5210,0.0278,0.0193,0.0055,0.0088,-0.0013,-0.0025,
5.5230,0.0278,0.0193,0.0055,0.0088,-0.0013,-0.0025,
5.5250,0.0278,0.0193,0.0055,0.0088,-0.0013,-0.0025,
5.5260,-0.0268,0.0134,0.0089,0.0088,-0.0013,-0.0025,
5.5270,-0.0268,0.0134,0.0089,0.0052,-0.0001,-0.0034,
5.5790,-0.0268,0.0134,0.0089,0.0052,-0.0001,-0.0034,
5.5810,-0.0268,0.0134,0.0089,0.0052,-0.0001,-0.0034,
5.5820,-0.0268,0.0134,0.0089,0.0052,-0.0001,-0.0034,
5.5840,0.0194,-0.0022,-0.0033,0.0052,-0.0001,-0.0034,
5.5850,0.0194,-0.0022,-0.0033,0.0019,-0.0017,0.0003,
5.6370,0.0194,-0.0022,-0.0033,0.0019,-0.0017,0.0003,
5.6400,0.0194,-0.0022,-0.0033,0.0019,-0.0017,0.0003,
5.6410,0.0194,-0.0022,-0.0033,0.0019,-0.0017,0.0003,
5.6420,0.0194,-0.0022,-0.0033,-0.0022,0.0048,-0.0013,
5.6440,0.0382,0.0107,0.0225,-0.0022,0.0048,-0.0013,
5.6960,0.0382,0.0107,0.0225,-0.0022,0.0048,-0.0013,
5.6990,0.0382,0.0107,0.0225,-0.0022,0.0048,-0.0013,
5.7000,0.0382,0.0107,0.0225,-0.0022,0.0048,-0.0013,
5.7020,-0.0231,-0.0103,0.0021,-0.0022,0.0048,-0.0013,
5.7030,-0.0231,-0.0103,0.0021,-0.0026,0.0089,-0.0034,
5.7540,-0.0231,-0.0103,0.0021,-0.0026,0.0089,-0.0034,
5.7560,-0.0231,-0.0103,0.0021,-0.0026,0.0089,-0.0034,
5.7570,-0.0231,-0.0103,0.0021,-0.0026,0.0089,-0.0034,
5.7590,0.0244,0.0085,0.0026,-0.0026,0.0089,-0.0034,
5.7600,0.0244,0.0085,0.0026,-0.0018,0.0028,-0.0009,
5.8130,0.0244,0.0085,0.0026,-0.0018,0.0028,-0.0009,
5.8160,0.0244,0.0085,0.0026,-0.0018,0.0028,-0.0009,
5.8170,0.0244,0.0085,0.0026,-0.0018,0.0028,-0.0009,
5.8180,0.0244,0.0085,0.0026,-0.0009,0.0044,-0.0038,
5.8190,-0.0022,-0.0050,0.0063,-0.0009,0.0044,-0.0038,
5.8720,-0.0022,-0.0050,0.0063,-0.0009,0.0044,-0.0038,
5.8740,-0.0022,-0.0050,0.0063,-0.0009,0.0044,-0.0038,
5.8750,-0.0022,-0.0050,0.0063,-0.0009,0.0044,-0.0038,
5.8770,-0.0022,-0.0050,0.0063,-0.0009,0.0032,-0.0038,
5.8780,0.0097,-0.0164,0.0124,-0.0009,0.0032,-0.0038,
5.9300,0.0097,-0.0164,0.0124,-0.0009,0.0032,-0.0038,
5.9330,0.0097,-0.0164,0.0124,-0.0009,0.0032,-0.0038,
5.9350,0.0097,-0.0164,0.0124,-0.0009,0.0032,-0.0038,
5.9360,0.0097,-0.0164,0.0124,0.0039,-0.0009,-0.0038,
5.9380,0.0049,-0.0049,0.0342,0.0039,-0.0009,-0.0038,
5.9890,0.0049,-0.0049,0.0342,0.0039,-0.0009,-0.0038,
5.9910,0.0049,-0.0049,0.0342,0.0039,-0.0009,-0.0038,
5.9930,0.0049,-0.0049,0.0342,0.0039,-0.0009,-0.0038,
5.9940,-0.0155,-0.0193,0.0278,0.0039,-0.0009,-0.0038,
5.9950,-0.0155,-0.0193,0.0278,0.0092,-0.0033,-0.0009,
6.0480,0.0197,-0.0085,0.0167,0.0092,-0.0033,-0.0009,
6.0500,0.0197,-0.0085,0.0167,0.0092,-0.0033,-0.0009,
6.0520,0.0197,-0.0085,0.0167,0.0092,-0.0033,-0.0009,
6.0530,0.0197,-0.0085,0.0167,0.0092,-0.0033,-0.0009,
6.0540,0.0197,-0.0085,0.0167,0.0178,-0.0005,0.0040,
6.1060,0.0197,-0.0085,0.0167,0.0178,-0.0005,0.0040,
6.1080,0.0197,-0.0085,0.0167,0.0178,-0.0005,0.0040,
6.1090,0.0197,-0.0085,0.0167,0.0178,-0.0005,0.0040,
6.1100,0.0197,-0.0085,0.0167,0.0174,0.0052,0.0076,
6.1120,0.0410,0.0137,0.0268,0.0174,0.0052,0.0076,
6.1640,0.0410,0.0137,0.0268,0.0174,0.0052,0.0076,
6.1660,0.0410,0.0137,0.0268,0.0174,0.0052,0.0076,
6.1670,0.0410,0.0137,0.0268,0.0174,0.0052,0.0076,
6.1690,0.0041,0.0312,0.0233,0.0174,0.0052,0.0076,
6.1700,0.0041,0.0312,0.0233,0.0133,-0.0017,0.0052,
6.2240,0.0041,0.0312,0.0233,0.0133,-0.0017,0.0052,
6.2260,0.0041,0.0312,0.0233,0.0133,-0.0017,0.0052,
6.2270,0.0041,0.0312,0.0233,0.0133,-0.0017,0.0052,
6.2290,0.0192,0.0006,0.0180,0.0133,-0.0017,0.0052,
6.2300,0.0192,0.0006,0.0180,0.0092,-0.0050,0.0007,
6.2810,0.0192,0.0006,0.0180,0.0092,-0.0050,0.0007,
6.2840,0.0192,0.0006,0.0180,0.0092,-0.0050,0.0007,
6.2850,0.0192,0.0006,0.0180,0.0092,-0.0050,0.0007,
6.2870,0.0192,0.0006,0.0180,0.0100,-0.0005,0.0003,
6.2880,0.0063,-0.0073,0.0161,0.0100,-0.0005,0.0003,
6.3400,0.0063,-0.0073,0.0161,0.0100,-0.0005,0.0003,
6.3430,0.0063,-0.0073,0.0161,0.0100,-0.0005,0.0003,
6.3450,0.0063,-0.0073,0.0161,0.0100,-0.0005,0.0003,
6.3460,0.0063,-0.0073,0.0161,0.0113,0.0048,0.0003,
6.3470,-0.0012,0.0183,-0.0159,0.0113,0.0048,0.0003,
6.3990,-0.0012,0.0183,-0.0159,0.0113,0.0048,0.0003,
6.4010,-0.0012,0.0183,-0.0159,0.0113,0.0048,0.0003,
6.4020,-0.0012,0.0183,-0.0159,0.0113,0.0048,0.0003,
6.4030,0.0042,-0.0267,0.0129,0.0113,0.0048,0.0003,
6.4050,0.0042,-0.0267,0.0129,0.0104,0.0081,0.0068,
6.4570,0.0042,-0.0267,0.0129,0.0104,0.0081,0.0068,
6.4600,0.0042,-0.0267,0.0129,0.0104,0.0081,0.0068,
6.4610,0.0042,-0.0267,0.0129,0.0104,0.0081,0.0068,
6.4630,0.0042,-0.0267,0.0129,0.0080,0.0113,0.0080,
6.4640,0.0450,0.0445,0.0565,0.0080,0.0113,0.0080,
6.5160,0.0450,0.0445,0.0565,0.0080,0.0113,0.0080,
6.5180,0.0450,0.0445,0.0565,0.0080,0.0113,0.0080,
6.5200,0.0450,0.0445,0.0565,0.0080,0.0113,0.0080,
6.5210,-0.0167,-0.0155,0.0351,0.0080,0.0113,0.0080,
6.5230,-0.0167,-0.0155,0.0351,0.0039,0.0113,-0.0001,
6.5750,-0.0167,-0.0155,0.0351,0.0039,0.0113,-0.0001,
6.5770,-0.0167,-0.0155,0.0351,0.0039,0.0113,-0.0001,
6.5780,-0.0167,-0.0155,0.0351,0.0039,0.0113,-0.0001,
6.5790,-0.0167,-0.0155,0.0351,0.0105,0.0052,-0.0021,
6.5810,-0.0340,-0.0017,-0.0178,0.0105,0.0052,-0.0021,
6.6330,-0.0340,-0.0017,-0.0178,0.0105,0.0052,-0.0021,
6.6360,-0.0340,-0.0017,-0.0178,0.0105,0.0052,-0.0021,
6.6370,-0.0340,-0.0017,-0.0178,0.0105,0.0052,-0.0021,
6.6380,-0.0340,-0.0017,-0.0178,0.0052,-0.0017,-0.0005,
6.6400,0.0028,0.0124,0.0136,0.0052,-0.0017,-0.0005,
6.6920,0.0028,0.0124,0.0136,0.0052,-0.0017,-0.0005,
6.6950,0.0028,0.0124,0.0136,0.0052,-0.0017,-0.0005,
6.6960,0.0028,0.0124,0.0136,0.0052,-0.0017,-0.0005,
6.6970,0.0028,0.0124,0.0136,-0.0022,-0.0086,-0.0001,
6.6990,-0.0054,0.0250,-0.0143,-0.0022,-0.0086,-0.0001,
6.7500,-0.0054,0.0250,-0.0143,-0.0022,-0.0086,-0.0001,
6.7530,-0.0054,0.0250,-0.0143,-0.0022,-0.0086,-0.0001,
6.7540,-0.0054,0.0250,-0.0143,-0.0022,-0.0086,-0.0001,
6.7550,0.0145,-0.0222,0.0076,-0.0022,-0.0086,-0.0001,
6.7560,0.0145,-0.0222,0.0076,-0.0062,-0.0119,0.0011,
6.8090,0.0145,-0.0222,0.0076,-0.0062,-0.0119,0.0011,
6.8110,0.0145,-0.0222,0.0076,-0.0062,-0.0119,0.0011,
6.8130,0.0145,-0.0222,0.0076,-0.0062,-0.0119,0.0011,
6.8140,0.0145,-0.0222,0.0076,-0.0042,-0.0090,-0.0034,
6.8150,0.0372,-0.0007,0.0162,-0.0042,-0.0090,-0.0034,
6.8680,0.0372,-0.0007,0.0162,-0.0042,-0.0090,-0.0034,
6.8700,0.0372,-0.0007,0.0162,-0.0042,-0.0090,-0.0034,
6.8710,0.0372,-0.0007,0.0162,-0.0042,-0.0090,-0.0034,
6.8720,0.0372,-0.0007,0.0162,-0.0038,-0.0025,-0.0066,
6.8740,0.0146,-0.0062,-0.0047,-0.0038,-0.0025,-0.0066,
6.9260,0.0146,-0.0062,-0.0047,-0.0038,-0.0025,-0.0066,
6.9280,0.0146,-0.0062,-0.0047,-0.0038,-0.0025,-0.0066,
6.9290,0.0146,-0.0062,-0.0047,-0.0038,-0.0025,-0.0066,
6.9300,0.0366,0.0026,0.0093,-0.0038,-0.0025,-0.0066,
6.9320,0.0366,0.0026,0.0093,0.0003,-0.0025,-0.0058,
6.9850,0.0366,0.0026,0.0093,0.0003,-0.0025,-0.0058,
6.9880,0.0366,0.0026,0.0093,0.0003,-0.0025,-0.0058,
6.9890,0.0366,0.0026,0.0093,0.0003,-0.0025,-0.0058,
6.9900,-0.0104,0.0058,0.0091,0.0003,-0.0025,-0.0058,
6.9910,-0.0104,0.0058,0.0091,0.0011,0.0048,-0.0095,
7.0430,-0.0104,0.0058,0.0091,0.0011,0.0048,-0.0095,
7.0450,-0.0104,0.0058,0.0091,0.0011,0.0048,-0.0095,
7.0460,-0.0104,0.0058,0.0091,0.0011,0.0048,-0.0095,
7.0470,-0.0104,0.0058,0.0091,0.0007,0.0007,-0.0062,
7.0490,0.0165,-0.0037,0.0106,0.0007,0.0007,-0.0062,
7.1020,0.0165,-0.0037,0.0106,0.0007,0.0007,-0.0062,
7.1050,0.0165,-0.0037,0.0106,0.0007,0.0007,-0.0062,
7.1060,0.0165,-0.0037,0.0106,0.0007,0.0007,-0.0062,
7.1080,0.0165,-0.0037,0.0106,0.0031,-0.0029,-0.0066,
7.1090,-0.0031,0.0136,0.0193,0.0031,-0.0029,-0.0066,
7.1600,-0.0031,0.0136,0.0193,0.0031,-0.0029,-0.0066,
7.1620,-0.0031,0.0136,0.0193,0.0031,-0.0029,-0.0066,
7.1640,-0.0031,0.0136,0.0193,0.0031,-0.0029,-0.0066,
7.1650,-0.0031,0.0136,0.0193,0.0015,-0.0107,-0.0070,
7.1660,0.0370,-0.0066,0.0153,0.0015,-0.0107,-0.0070,
7.2190,0.0370,-0.0066,0.0153,0.0015,-0.0107,-0.0070,
7.2210,0.0370,-0.0066,0.0153,0.0015,-0.0107,-0.0070,
7.2220,0.0370,-0.0066,0.0153,0.0015,-0.0107,-0.0070,
7.2230,0.0370,-0.0066,0.0153,0.0080,-0.0074,-0.0017,
7.2250,0.1547,0.0153,0.0264,0.0080,-0.0074,-0.0017,
7.2780,0.1547,0.0153,0.0264,0.0080,-0.0074,-0.0017,
7.2800,0.1547,0.0153,0.0264,0.0080,-0.0074,-0.0017,
7.2810,0.1547,0.0153,0.0264,0.0080,-0.0074,-0.0017,
7.2820,0.1547,0.0153,0.0264,0.0149,0.0146,0.0162,
7.2830,0.3554,0.0269,-0.0072,0.0149,0.0146,0.0162,
7.3360,0.3554,0.0269,-0.0072,0.0149,0.0146,0.0162,
7.3390,0.3554,0.0269,-0.0072,0.0149,0.0146,0.0162,
7.3400,0.3554,0.0269,-0.0072,0.0149,0.0146,0.0162,
7.3430,0.3554,0.0269,-0.0072,0.0145,0.0419,0.0268,
7.3450,0.3369,0.0080,0.0599,0.0145,0.0419,0.0268,
7.3940,0.3369,0.0080,0.0599,0.0145,0.0419,0.0268,
7.3960,0.3369,0.0080,0.0599,0.0145,0.0419,0.0268,
7.3960,0.3369,0.0080,0.0599,0.0145,0.0419,0.0268,
7.3970,0.3369,0.0080,0.0599,0.0125,0.0333,0.0357,
7.3970,0.1693,0.0397,0.0066,0.0125,0.0333,0.0357,
7.4530,0.1693,0.0397,0.0066,0.0125,0.0333,0.0357,
7.4540,0.1693,0.0397,0.0066,0.0125,0.0333,0.0357,
7.4550,0.1693,0.0397,0.0066,0.0125,0.0333,0.0357,
7.4550,0.1693,0.0397,0.0066,0.0019,-0.0143,0.0333,
7.4560,-0.2064,-0.0269,0.0523,0.0019,-0.0143,0.0333,
7.5130,-0.2064,-0.0269,0.0523,0.0019,-0.0143,0.0333,
7.5140,-0.2064,-0.0269,0.0523,0.0019,-0.0143,0.0333,
7.5140,-0.2064,-0.0269,0.0523,0.0019,-0.0143,0.0333,
7.5150,-0.2064,-0.0269,0.0523,-0.0001,-0.1072,0.0382,
7.5150,-0.4464,0.0232,0.0589,-0.0001,-0.1072,0.0382,
7.5700,-0.4464,0.0232,0.0589,-0.0001,-0.1072,0.0382,
7.5730,-0.4464,0.0232,0.0589,-0.0001,-0.1072,0.0382,
7.5740,-0.4464,0.0232,0.0589,-0.0001,-0.1072,0.0382,
7.5750,-0.4464,0.0232,0.0589,0.0141,-0.1919,0.0093,
7.5770,-0.4452,-0.0935,-0.0276,0.0141,-0.1919,0.0093,
7.6290,-0.4452,-0.0935,-0.0276,0.0141,-0.1919,0.0093,
7.6310,-0.4452,-0.0935,-0.0276,0.0141,-0.1919,0.0093,
7.6320,-0.4452,-0.0935,-0.0276,0.0141,-0.1919,0.0093,
7.6330,-0.4452,-0.0935,-0.0276,0.0255,-0.1821,-0.0262,
7.6350,-0.8099,0.0643,0.1034,0.0255,-0.1821,-0.0262,
7.6860,-0.8099,0.0643,0.1034,0.0255,-0.1821,-0.0262,
7.6880,-0.8099,0.0643,0.1034,0.0255,-0.1821,-0.0262,
7.6900,-0.8099,0.0643,0.1034,0.0255,-0.1821,-0.0262,
7.6920,-0.8099,0.0643,0.1034,0.0023,-0.1756,-0.0184,
7.6930,-0.7083,-0.1222,0.1524,0.0023,-0.1756,-0.0184,
7.7460,-0.7083,-0.1222,0.1524,0.0023,-0.1756,-0.0184,
7.7490,-0.7083,-0.1222,0.1524,0.0023,-0.1756,-0.0184,
7.7500,-0.7083,-0.1222,0.1524,0.0023,-0.1756,-0.0184,
7.7510,-0.7083,-0.1222,0.1524,0.0043,-0.1398,0.0321,
7.7520,-0.7061,0.1010,-0.0818,0.0043,-0.1398,0.0321,
7.8050,-0.7061,0.1010,-0.0818,0.0043,-0.1398,0.0321,
7.8070,-0.7061,0.1010,-0.0818,0.0043,-0.1398,0.0321,
7.8080,-0.7061,0.1010,-0.0818,0.0043,-0.1398,0.0321,
7.8090,-0.7061,0.1010,-0.0818,-0.0091,-0.1023,0.0642,
7.8100,-0.6571,-0.0839,-0.2735,-0.0091,-0.1023,0.0642,
7.8630,-0.6571,-0.0839,-0.2735,-0.0091,-0.1023,0.0642,
7.8660,-0.6571,-0.0839,-0.2735,-0.0091,-0.1023,0.0642,
7.8670,-0.6571,-0.0839,-0.2735,-0.0091,-0.1023,0.0642,
7.8680,-0.6571,-0.0839,-0.2735,-0.0136,-0.0176,0.0634,
7.8690,-0.3973,0.5121,-0.2564,-0.0136,-0.0176,0.0634,
7.9220,-0.3973,0.5121,-0.2564,-0.0136,-0.0176,0.0634,
7.9240,-0.3973,0.5121,-0.2564,-0.0136,-0.0176,0.0634,
7.9260,-0.3973,0.5121,-0.2564,-0.0136,-0.0176,0.0634,
7.9270,-0.6213,-0.6535,-0.1451,-0.0136,-0.0176,0.0634,
7.9290,-0.6213,-0.6535,-0.1451,-0.0942,0.0989,0.0842,
7.9800,-0.6213,-0.6535,-0.1451,-0.0942,0.0989,0.0842,
7.9820,-0.6213,-0.6535,-0.1451,-0.0942,0.0989,0.0842,
7.9830,-0.6213,-0.6535,-0.1451,-0.0942,0.0989,0.0842,
7.9840,-0.6213,-0.6535,-0.1451,-0.0759,0.1278,0.0919,
7.9850,-0.0954,-0.2870,0.1359,-0.0759,0.1278,0.0919,
8.0390,-0.0954,-0.2870,0.1359,-0.0759,0.1278,0.0919,
8.0410,-0.0954,-0.2870,0.1359,-0.0759,0.1278,0.0919,
8.0420,-0.0954,-0.2870,0.1359,-0.0759,0.1278,0.0919,
8.0430,-0.0954,-0.2870,0.1359,-0.0201,0.2813,0.1412,
8.0450,0.3158,0.4446,-0.3215,-0.0201,0.2813,0.1412,
8.0980,0.3158,0.4446,-0.3215,-0.0201,0.2813,0.1412,
8.1000,0.3158,0.4446,-0.3215,-0.0201,0.2813,0.1412,
8.1010,0.3158,0.4446,-0.3215,-0.0201,0.2813,0.1412,
8.1020,0.3158,0.4446,-0.3215,-0.0229,0.2577,0.1640,
8.1040,0.1039,-0.1758,0.0628,-0.0229,0.2577,0.1640,
8.1560,0.1039,-0.1758,0.0628,-0.0229,0.2577,0.1640,
8.1580,0.1039,-0.1758,0.0628,-0.0229,0.2577,0.1640,
8.1590,0.1039,-0.1758,0.0628,-0.0229,0.2577,0.1640,
8.1610,0.1039,-0.1758,0.0628,0.0524,0.2882,0.1501,
8.1620,0.4022,-0.1714,-0.0375,0.0524,0.2882,0.1501,
8.2150,0.4022,-0.1714,-0.0375,0.0524,0.2882,0.1501,
8.2170,0.4022,-0.1714,-0.0375,0.0524,0.2882,0.1501,
8.2180,0.4022,-0.1714,-0.0375,0.0524,0.2882,0.1501,
8.2200,0.4022,-0.1714,-0.0375,0.0373,0.1685,0.1559,
8.2210,0.5369,0.0539,0.2455,0.0373,0.1685,0.1559,
8.2730,0.5369,0.0539,0.2455,0.0373,0.1685,0.1559,
8.2750,0.5369,0.0539,0.2455,0.0373,0.1685,0.1559,
8.2770,0.5369,0.0539,0.2455,0.0373,0.1685,0.1559,
8.2780,0.5369,0.0539,0.2455,0.0011,0.0634,0.1412,
8.2790,0.5946,0.0953,0.1838,0.0011,0.0634,0.1412,
8.3080,0.5946,0.0953,0.1838,0.0011,0.0634,0.1412,
8.3500,0.4739,0.0053,0.2533,0.0011,0.0634,0.1412,
8.3500,0.4739,0.0053,0.2533,-0.0360,0.0121,0.1131,
8.3950,0.4739,0.0053,0.2533,-0.0380,-0.0294,0.1025,
8.3950,0.6581,-0.0584,0.2147,-0.0380,-0.0294,0.1025,
8.3960,0.6581,-0.0584,0.2147,-0.0380,-0.0294,0.1025,
8.3960,0.6581,-0.0584,0.2147,-0.0380,-0.0294,0.1025,
8.3970,0.6581,-0.0584,0.2147,-0.0380,-0.0294,0.1025,
8.3970,0.6581,-0.0584,0.2147,-0.0380,-0.0294,0.1025,
8.3970,0.6581,-0.0584,0.2147,-0.0380,-0.0294,0.1025,
8.4470,0.6581,-0.0584,0.2147,-0.0380,-0.0294,0.1025,
8.4480,0.6581,-0.0584,0.2147,-0.0380,-0.0294,0.1025,
8.4480,0.6581,-0.0584,0.2147,-0.0380,-0.0294,0.1025,
8.4490,0.6581,-0.0584,0.2147,-0.0278,-0.0603,0.0805,
8.4500,0.6630,-0.0734,0.1893,-0.0278,-0.0603,0.0805,
8.5060,0.6630,-0.0734,0.1893,-0.0278,-0.0603,0.0805,
8.5070,0.6630,-0.0734,0.1893,-0.0278,-0.0603,0.0805,
8.5070,0.6630,-0.0734,0.1893,-0.0278,-0.0603,0.0805,
8.5080,0.6630,-0.0734,0.1893,-0.0099,-0.0591,0.0500,
8.5080,0.6841,-0.0512,0.0758,-0.0099,-0.0591,0.0500,
8.5650,0.6841,-0.0512,0.0758,-0.0099,-0.0591,0.0500,
8.5670,0.6841,-0.0512,0.0758,-0.0099,-0.0591,0.0500,
8.5680,0.6841,-0.0512,0.0758,-0.0099,-0.0591,0.0500,
8.5690,0.6841,-0.0512,0.0758,0.0007,-0.0510,0.0129,
8.5700,0.6499,-0.1053,0.0276,0.0007,-0.0510,0.0129,
8.6250,0.6499,-0.1053,0.0276,0.0007,-0.0510,0.0129,
8.6260,0.6499,-0.1053,0.0276,0.0007,-0.0510,0.0129,
8.6280,0.6499,-0.1053,0.0276,0.0007,-0.0510,0.0129,
8.6290,0.6499,-0.1053,0.0276,0.0096,-0.0412,-0.0302,
8.6300,0.5757,-0.0511,0.0022,0.0096,-0.0412,-0.0302,
8.6830,0.5757,-0.0511,0.0022,0.0096,-0.0412,-0.0302,
8.6860,0.5757,-0.0511,0.0022,0.0096,-0.0412,-0.0302,
8.6870,0.5757,-0.0511,0.0022,0.0096,-0.0412,-0.0302,
8.6880,0.5757,-0.0511,0.0022,0.0182,-0.0449,-0.0702,
8.6890,0.5558,-0.0845,0.0147,0.0182,-0.0449,-0.0702,
8.7410,0.5558,-0.0845,0.0147,0.0182,-0.0449,-0.0702,
8.7440,0.5558,-0.0845,0.0147,0.0182,-0.0449,-0.0702,
8.7450,0.5558,-0.0845,0.0147,0.0182,-0.0449,-0.0702,
8.7460,0.5558,-0.0845,0.0147,0.0267,-0.0237,-0.1235,
8.7470,0.5015,-0.0788,0.0046,0.0267,-0.0237,-0.1235,
8.8000,0.5015,-0.0788,0.0046,0.0267,-0.0237,-0.1235,
8.8020,0.5015,-0.0788,0.0046,0.0267,-0.0237,-0.1235,
8.8030,0.5015,-0.0788,0.0046,0.0267,-0.0237,-0.1235,
8.8040,0.5015,-0.0788,0.0046,0.0340,-0.0327,-0.1675,
8.8060,0.4187,-0.0397,0.0304,0.0340,-0.0327,-0.1675,
8.8590,0.3956,0.0245,-0.1001,0.0340,-0.0327,-0.1675,
8.8610,0.3956,0.0245,-0.1001,0.0340,-0.0327,-0.1675,
8.8630,0.3956,0.0245,-0.1001,0.0340,-0.0327,-0.1675,
8.8640,0.3956,0.0245,-0.1001,0.0340,-0.0327,-0.1675,
8.8660,0.3956,0.0245,-0.1001,0.0471,-0.0441,-0.1923,
8.9170,0.3956,0.0245,-0.1001,0.0471,-0.0441,-0.1923,
8.9180,0.3956,0.0245,-0.1001,0.0471,-0.0441,-0.1923,
8.9200,0.3956,0.0245,-0.1001,0.0471,-0.0441,-0.1923,
8.9210,0.3956,0.0245,-0.1001,0.0284,-0.0612,-0.2041,
8.9220,0.3062,-0.0386,-0.0112,0.0284,-0.0612,-0.2041,
8.9760,0.3062,-0.0386,-0.0112,0.0284,-0.0612,-0.2041,
8.9780,0.3062,-0.0386,-0.0112,0.0284,-0.0612,-0.2041,
8.9790,0.3062,-0.0386,-0.0112,0.0284,-0.0612,-0.2041,
8.9800,0.3062,-0.0386,-0.0112,0.0683,-0.0917,-0.1830,
8.9810,-0.1381,0.3894,-0.3126,0.0683,-0.0917,-0.1830,
9.0350,-0.1381,0.3894,-0.3126,0.0683,-0.0917,-0.1830,
9.0380,-0.1381,0.3894,-0.3126,0.0683,-0.0917,-0.1830,
9.0390,-0.1381,0.3894,-0.3126,0.0683,-0.0917,-0.1830,
9.0400,-0.1381,0.3894,-0.3126,0.0467,-0.1402,-0.1593,
9.0420,-0.6346,-0.0267,-0.3266,0.0467,-0.1402,-0.1593,
9.0920,-0.6346,-0.0267,-0.3266,0.0467,-0.1402,-0.1593,
9.0930,-0.6346,-0.0267,-0.3266,0.0467,-0.1402,-0.1593,
9.0940,-0.6346,-0.0267,-0.3266,0.0467,-0.1402,-0.1593,
9.0950,-0.6346,-0.0267,-0.3266,0.0495,-0.1898,-0.1329,
9.0960,-0.7675,-0.0260,-0.0282,0.0495,-0.1898,-0.1329,
9.1500,-0.7675,-0.0260,-0.0282,0.0495,-0.1898,-0.1329,
9.1510,-0.7675,-0.0260,-0.0282,0.0495,-0.1898,-0.1329,
9.1510,-0.7675,-0.0260,-0.0282,0.0495,-0.1898,-0.1329,
9.1510,-0.7675,-0.0260,-0.0282,0.0634,-0.2505,-0.1048,
9.1520,-0.7617,0.4311,0.0130,0.0634,-0.2505,-0.1048,
9.2090,-0.7617,0.4311,0.0130,0.0634,-0.2505,-0.1048,
9.2100,-0.7617,0.4311,0.0130,0.0634,-0.2505,-0.1048,
9.2110,-0.7617,0.4311,0.0130,0.0634,-0.2505,-0.1048,
9.2110,-0.7617,0.4311,0.0130,0.0165,-0.2082,-0.1439,
9.2120,-0.7215,-0.0877,0.0090,0.0165,-0.2082,-0.1439,
9.2690,-0.7215,-0.0877,0.0090,0.0165,-0.2082,-0.1439,
9.2710,-0.7215,-0.0877,0.0090,0.0165,-0.2082,-0.1439,
9.2720,-0.7215,-0.0877,0.0090,0.0165,-0.2082,-0.1439,
9.2730,-0.7215,-0.0877,0.0090,0.0174,-0.1703,-0.1597,
9.2750,-0.8683,-0.1725,0.0617,0.0174,-0.1703,-0.1597,
9.3270,-0.8683,-0.1725,0.0617,0.0174,-0.1703,-0.1597,
9.3300,-0.8683,-0.1725,0.0617,0.0174,-0.1703,-0.1597,
9.3310,-0.8683,-0.1725,0.0617,0.0174,-0.1703,-0.1597,
9.3330,-0.8683,-0.1725,0.0617,-0.0054,-0.1251,-0.1626,
9.3340,-0.8240,-0.0070,0.1541,-0.0054,-0.1251,-0.1626,
9.3850,-0.8240,-0.0070,0.1541,-0.0054,-0.1251,-0.1626,
9.3880,-0.8240,-0.0070,0.1541,-0.0054,-0.1251,-0.1626,
9.3890,-0.8240,-0.0070,0.1541,-0.0054,-0.1251,-0.1626,
9.3900,-0.8240,-0.0070,0.1541,-0.0413,-0.0946,-0.1426,
9.3920,-0.7503,-0.0739,0.1993,-0.0413,-0.0946,-0.1426,
9.4450,-0.7503,-0.0739,0.1993,-0.0413,-0.0946,-0.1426,
9.4470,-0.7503,-0.0739,0.1993,-0.0413,-0.0946,-0.1426,
9.4490,-0.7503,-0.0739,0.1993,-0.0413,-0.0946,-0.1426,
9.4500,-0.6376,-0.1192,0.1802,-0.0413,-0.0946,-0.1426,
9.4520,-0.6376,-0.1192,0.1802,-0.0409,-0.0811,-0.1084,
9.5050,-0.5995,-0.0417,0.0984,-0.0409,-0.0811,-0.1084,
9.5070,-0.5995,-0.0417,0.0984,-0.0409,-0.0811,-0.1084,
9.5080,-0.5995,-0.0417,0.0984,-0.0409,-0.0811,-0.1084,
9.5090,-0.5995,-0.0417,0.0984,-0.0409,-0.0811,-0.1084,
9.5110,-0.5995,-0.0417,0.0984,-0.0340,-0.0331,-0.0730,
9.5610,-0.5995,-0.0417,0.0984,-0.0340,-0.0331,-0.0730,
9.5630,-0.5995,-0.0417,0.0984,-0.0340,-0.0331,-0.0730,
9.5650,-0.5995,-0.0417,0.0984,-0.0340,-0.0331,-0.0730,
9.5660,-0.5727,-0.0244,0.0545,-0.0340,-0.0331,-0.0730,
9.5670,-0.5727,-0.0244,0.0545,-0.0364,-0.0066,-0.0315,
9.6200,-0.5727,-0.0244,0.0545,-0.0364,-0.0066,-0.0315,
9.6220,-0.5727,-0.0244,0.0545,-0.0364,-0.0066,-0.0315,
9.6230,-0.5727,-0.0244,0.0545,-0.0364,-0.0066,-0.0315,
9.6240,-0.5008,-0.0675,0.1187,-0.0364,-0.0066,-0.0315,
9.6260,-0.5008,-0.0675,0.1187,-0.0457,0.0142,-0.0025,
9.6780,-0.5008,-0.0675,0.1187,-0.0457,0.0142,-0.0025,
9.6800,-0.5008,-0.0675,0.1187,-0.0457,0.0142,-0.0025,
9.6820,-0.5008,-0.0675,0.1187,-0.0457,0.0142,-0.0025,
9.6830,-0.5008,-0.0675,0.1187,-0.0356,0.0239,0.0268,
9.6840,-0.4870,-0.0629,0.0448,-0.0356,0.0239,0.0268,
9.7370,-0.4870,-0.0629,0.0448,-0.0356,0.0239,0.0268,
9.7390,-0.4870,-0.0629,0.0448,-0.0356,0.0239,0.0268,
9.7400,-0.4870,-0.0629,0.0448,-0.0356,0.0239,0.0268,
9.7420,-0.4870,-0.0629,0.0448,-0.0352,0.0158,0.0573,
9.7430,-0.4116,-0.0888,0.0362,-0.0352,0.0158,0.0573,
9.7960,-0.4116,-0.0888,0.0362,-0.0352,0.0158,0.0573,
9.7980,-0.4116,-0.0888,0.0362,-0.0352,0.0158,0.0573,
9.7990,-0.4116,-0.0888,0.0362,-0.0352,0.0158,0.0573,
9.8000,-0.4116,-0.0888,0.0362,-0.0221,0.0142,0.0773,
9.8010,-0.3707,-0.0970,0.0343,-0.0221,0.0142,0.0773,
9.8540,-0.3707,-0.0970,0.0343,-0.0221,0.0142,0.0773,
9.8560,-0.3707,-0.0970,0.0343,-0.0221,0.0142,0.0773,
9.8570,-0.3707,-0.0970,0.0343,-0.0221,0.0142,0.0773,
9.8580,-0.3707,-0.0970,0.0343,-0.0022,0.0097,0.0997,
9.8600,-0.3795,-0.1008,0.0167,-0.0022,0.0097,0.0997,
9.9130,-0.3795,-0.1008,0.0167,-0.0022,0.0097,0.0997,
9.9150,-0.3795,-0.1008,0.0167,-0.0022,0.0097,0.0997,
9.9160,-0.3795,-0.1008,0.0167,-0.0022,0.0097,0.0997,
9.9170,-0.2509,-0.0601,-0.0036,-0.0022,0.0097,0.0997,
9.9190,-0.2509,-0.0601,-0.0036,0.0161,-0.0046,0.1221,
9.9710,-0.2509,-0.0601,-0.0036,0.0161,-0.0046,0.1221,
9.9720,-0.2509,-0.0601,-0.0036,0.0161,-0.0046,0.1221,
9.9740,-0.2509,-0.0601,-0.0036,0.0161,-0.0046,0.1221,
9.9750,-0.2509,-0.0601,-0.0036,0.0267,-0.0127,0.1428,
9.9760,-0.2138,-0.0714,-0.0489,0.0267,-0.0127,0.1428,
10.0300,-0.2138,-0.0714,-0.0489,0.0267,-0.0127,0.1428,
10.0320,-0.2138,-0.0714,-0.0489,0.0267,-0.0127,0.1428,
10.0330,-0.2138,-0.0714,-0.0489,0.0267,-0.0127,0.1428,
10.0350,-0.2138,-0.0714,-0.0489,0.0434,-0.0213,0.1563,
10.0360,-0.1200,-0.0434,-0.0971,0.0434,-0.0213,0.1563,
10.0880,-0.1200,-0.0434,-0.0971,0.0434,-0.0213,0.1563,
10.0900,-0.1200,-0.0434,-0.0971,0.0434,-0.0213,0.1563,
10.0910,-0.1200,-0.0434,-0.0971,0.0434,-0.0213,0.1563,
10.0930,-0.1200,-0.0434,-0.0971,0.0670,-0.0103,0.1518,
10.0940,0.4453,0.5783,-0.1343,0.0670,-0.0103,0.1518,
10.1460,0.4453,0.5783,-0.1343,0.0670,-0.0103,0.1518,
10.1480,0.4453,0.5783,-0.1343,0.0670,-0.0103,0.1518,
10.1480,0.4453,0.5783,-0.1343,0.0670,-0.0103,0.1518,
10.1480,0.7050,0.0523,-0.3028,0.0670,-0.0103,0.1518,
10.1490,0.7050,0.0523,-0.3028,0.0504,0.0272,0.1379,
10.2060,0.7050,0.0523,-0.3028,0.0504,0.0272,0.1379,
10.2080,0.7050,0.0523,-0.3028,0.0504,0.0272,0.1379,
10.2090,0.7050,0.0523,-0.3028,0.0504,0.0272,0.1379,
10.2100,0.7050,0.0523,-0.3028,0.0121,0.0842,0.1041,
10.2110,0.5304,0.0531,0.2001,0.0121,0.0842,0.1041,
10.2640,0.5304,0.0531,0.2001,0.0121,0.0842,0.1041,
10.2660,0.5304,0.0531,0.2001,0.0121,0.0842,0.1041,
10.2670,0.5304,0.0531,0.2001,0.0121,0.0842,0.1041,
10.2680,0.5304,0.0531,0.2001,0.0161,0.1954,0.0752,
10.2700,0.6758,0.3192,-0.0579,0.0161,0.1954,0.0752,
10.3240,0.6758,0.3192,-0.0579,0.0161,0.1954,0.0752,
10.3260,0.6758,0.3192,-0.0579,0.0161,0.1954,0.0752,
10.3270,0.6758,0.3192,-0.0579,0.0161,0.1954,0.0752,
10.3280,0.6758,0.3192,-0.0579,-0.0160,0.2129,0.0805,
10.3290,0.6394,0.0350,0.0330,-0.0160,0.2129,0.0805,
10.3810,0.6394,0.0350,0.0330,-0.0160,0.2129,0.0805,
10.3830,0.6394,0.0350,0.0330,-0.0160,0.2129,0.0805,
10.3850,0.6394,0.0350,0.0330,-0.0160,0.2129,0.0805,
10.3860,0.6394,0.0350,0.0330,0.0161,0.2109,0.0874,
10.3870,0.5848,0.0708,-0.0677,0.0161,0.2109,0.0874,
10.4400,0.5848,0.0708,-0.0677,0.0161,0.2109,0.0874,
10.4420,0.5848,0.0708,-0.0677,0.0161,0.2109,0.0874,
10.4430,0.5848,0.0708,-0.0677,0.0161,0.2109,0.0874,
10.4450,0.5848,0.0708,-0.0677,0.0153,0.1742,0.1151,
10.4460,0.7715,0.0367,-0.0154,0.0153,0.1742,0.1151,
10.4990,0.7715,0.0367,-0.0154,0.0153,0.1742,0.1151,
10.5010,0.7715,0.0367,-0.0154,0.0153,0.1742,0.1151,
10.5020,0.7715,0.0367,-0.0154,0.0153,0.1742,0.1151,
10.5030,0.7715,0.0367,-0.0154,-0.0001,0.2035,0.1053,
10.5050,0.6742,0.0188,0.0841,-0.0001,0.2035,0.1053,
10.5580,0.6742,0.0188,0.0841,-0.0001,0.2035,0.1053,
10.5600,0.6742,0.0188,0.0841,-0.0001,0.2035,0.1053,
10.5610,0.6742,0.0188,0.0841,-0.0001,0.2035,0.1053,
10.5620,0.6742,0.0188,0.0841,-0.0099,0.1970,0.0862,
10.5630,0.6053,0.0409,0.1252,-0.0099,0.1970,0.0862,
10.6160,0.6053,0.0409,0.1252,-0.0099,0.1970,0.0862,
10.6180,0.6053,0.0409,0.1252,-0.0099,0.1970,0.0862,
10.6200,0.6053,0.0409,0.1252,-0.0099,0.1970,0.0862,
10.6210,0.6053,0.0409,0.1252,-0.0116,0.1718,0.0626,
10.6220,0.5222,-0.0030,0.1488,-0.0116,0.1718,0.0626,
10.6740,0.5222,-0.0030,0.1488,-0.0116,0.1718,0.0626,
10.6760,0.5222,-0.0030,0.1488,-0.0116,0.1718,0.0626,
10.6780,0.5222,-0.0030,0.1488,-0.0116,0.1718,0.0626,
10.6790,0.5222,-0.0030,0.1488,-0.0067,0.1367,0.0471,
10.6800,0.4785,-0.0208,0.1529,-0.0067,0.1367,0.0471,
10.7340,0.4785,-0.0208,0.1529,-0.0067,0.1367,0.0471,
10.7360,0.4785,-0.0208,0.1529,-0.0067,0.1367,0.0471,
10.7370,0.4785,-0.0208,0.1529,-0.0067,0.1367,0.0471,
10.7380,0.4785,-0.0208,0.1529,-0.0046,0.1025,0.0284,
10.7390,0.4764,0.0145,0.1440,-0.0046,0.1025,0.0284,
10.7920,0.4764,0.0145,0.1440,-0.0046,0.1025,0.0284,
10.7940,0.4764,0.0145,0.1440,-0.0046,0.1025,0.0284,
10.7950,0.4764,0.0145,0.1440,-0.0046,0.1025,0.0284,
10.7960,0.4764,0.0145,0.1440,-0.0014,0.0801,0.0048,
10.7970,0.4710,0.0545,0.1326,-0.0014,0.0801,0.0048,
10.8500,0.4710,0.0545,0.1326,-0.0014,0.0801,0.0048,
10.8520,0.4710,0.0545,0.1326,-0.0014,0.0801,0.0048,
10.8530,0.4710,0.0545,0.1326,-0.0014,0.0801,0.0048,
10.8550,0.4710,0.0545,0.1326,-0.0022,0.0500,-0.0217,
10.8560,0.3335,-0.0137,0.0738,-0.0022,0.0500,-0.0217,
10.9090,0.3335,-0.0137,0.0738,-0.0022,0.0500,-0.0217,
10.9110,0.3335,-0.0137,0.0738,-0.0022,0.0500,-0.0217,
10.9120,0.3335,-0.0137,0.0738,-0.0022,0.0500,-0.0217,
10.9130,0.3335,-0.0137,0.0738,-0.0042,0.0333,-0.0359,
10.9150,0.4423,0.0052,0.0420,-0.0042,0.0333,-0.0359,
10.9680,0.4423,0.0052,0.0420,-0.0042,0.0333,-0.0359,
10.9690,0.4423,0.0052,0.0420,-0.0042,0.0333,-0.0359,
10.9710,0.4423,0.0052,0.0420,-0.0042,0.0333,-0.0359,
10.9720,0.4423,0.0052,0.0420,-0.0062,0.0313,-0.0571,
10.9730,0.3491,0.0072,0.0453,-0.0062,0.0313,-0.0571,
11.0260,0.3491,0.0072,0.0453,-0.0062,0.0313,-0.0571,
11.0280,0.3491,0.0072,0.0453,-0.0062,0.0313,-0.0571,
11.0290,0.3491,0.0072,0.0453,-0.0062,0.0313,-0.0571,
11.0310,0.3491,0.0072,0.0453,-0.0022,0.0174,-0.0807,
11.0320,0.3551,-0.0740,0.0806,-0.0022,0.0174,-0.0807,
11.0840,0.3551,-0.0740,0.0806,-0.0022,0.0174,-0.0807,
11.0860,0.3551,-0.0740,0.0806,-0.0022,0.0174,-0.0807,
11.0870,0.3551,-0.0740,0.0806,-0.0022,0.0174,-0.0807,
11.0890,0.3551,-0.0740,0.0806,0.0137,0.0247,-0.0966,
11.0900,0.3736,0.0196,-0.0033,0.0137,0.0247,-0.0966,
11.1430,0.3736,0.0196,-0.0033,0.0137,0.0247,-0.0966,
11.1450,0.3736,0.0196,-0.0033,0.0137,0.0247,-0.0966,
11.1460,0.3736,0.0196,-0.0033,0.0137,0.0247,-0.0966,
11.1470,0.3736,0.0196,-0.0033,0.0186,0.0239,-0.1056,
11.1490,0.1791,0.1117,-0.0414,0.0186,0.0239,-0.1056,
11.2020,0.1791,0.1117,-0.0414,0.0186,0.0239,-0.1056,
11.2030,0.1791,0.1117,-0.0414,0.0186,0.0239,-0.1056,
11.2060,0.1791,0.1117,-0.0414,0.0186,0.0239,-0.1056,
11.2070,0.2736,-0.0816,-0.0651,0.0186,0.0239,-0.1056,
11.2080,0.2736,-0.0816,-0.0651,0.0133,0.0150,-0.1060,
11.2600,0.2736,-0.0816,-0.0651,0.0133,0.0150,-0.1060,
11.2620,0.2736,-0.0816,-0.0651,0.0133,0.0150,-0.1060,
11.2630,0.2736,-0.0816,-0.0651,0.0133,0.0150,-0.1060,
11.2650,0.2736,-0.0816,-0.0651,0.0210,0.0382,-0.1096,
11.2660,0.1128,0.0595,-0.0945,0.0210,0.0382,-0.1096,
11.3190,0.1128,0.0595,-0.0945,0.0210,0.0382,-0.1096,
11.3210,0.1128,0.0595,-0.0945,0.0210,0.0382,-0.1096,
11.3220,0.1128,0.0595,-0.0945,0.0210,0.0382,-0.1096,
11.3230,0.1128,0.0595,-0.0945,0.0235,0.0040,-0.1092,
11.3240,-0.1286,0.1824,-0.1424,0.0235,0.0040,-0.1092,
11.3760,-0.1286,0.1824,-0.1424,0.0235,0.0040,-0.1092,
11.3780,-0.1286,0.1824,-0.1424,0.0235,0.0040,-0.1092,
11.3780,-0.1286,0.1824,-0.1424,0.0235,0.0040,-0.1092,
11.3790,-0.1286,0.1824,-0.1424,0.0202,-0.0363,-0.1060,
11.3800,-0.4079,-0.0599,-0.1526,0.0202,-0.0363,-0.1060,
11.4360,-0.4079,-0.0599,-0.1526,0.0202,-0.0363,-0.1060,
11.4380,-0.4079,-0.0599,-0.1526,0.0202,-0.0363,-0.1060,
11.4390,-0.4079,-0.0599,-0.1526,0.0202,-0.0363,-0.1060,
11.4400,-0.4079,-0.0599,-0.1526,0.0402,-0.1104,-0.0807,
11.4410,-0.5924,0.0864,-0.2184,0.0402,-0.1104,-0.0807,
11.4950,-0.5924,0.0864,-0.2184,0.0402,-0.1104,-0.0807,
11.4970,-0.5924,0.0864,-0.2184,0.0402,-0.1104,-0.0807,
11.4980,-0.5924,0.0864,-0.2184,0.0402,-0.1104,-0.0807,
11.4990,-0.4940,-0.0178,0.0183,0.0402,-0.1104,-0.0807,
11.5000,-0.4940,-0.0178,0.0183,0.0259,-0.1740,-0.0714,
11.5540,-0.6343,0.1367,-0.1666,0.0259,-0.1740,-0.0714,
11.5570,-0.6343,0.1367,-0.1666,0.0259,-0.1740,-0.0714,
11.5580,-0.6343,0.1367,-0.1666,0.0259,-0.1740,-0.0714,
11.5590,-0.6343,0.1367,-0.1666,0.0259,-0.1740,-0.0714,
11.5600,-0.6343,0.1367,-0.1666,0.0581,-0.1670,-0.0551,
11.6120,-0.6343,0.1367,-0.1666,0.0581,-0.1670,-0.0551,
11.6140,-0.6343,0.1367,-0.1666,0.0581,-0.1670,-0.0551,
11.6150,-0.6343,0.1367,-0.1666,0.0581,-0.1670,-0.0551,
11.6160,-0.6343,0.1367,-0.1666,0.0210,-0.1267,-0.0791,
11.6180,-0.5852,-0.0479,-0.0008,0.0210,-0.1267,-0.0791,
11.6700,-0.5852,-0.0479,-0.0008,0.0210,-0.1267,-0.0791,
11.6720,-0.5852,-0.0479,-0.0008,0.0210,-0.1267,-0.0791,
11.6730,-0.5852,-0.0479,-0.0008,0.0210,-0.1267,-0.0791,
11.6740,-0.5852,-0.0479,-0.0008,0.0084,-0.1153,-0.0714,
11.6760,-0.6866,0.0433,-0.0825,0.0084,-0.1153,-0.0714,
11.7280,-0.6866,0.0433,-0.0825,0.0084,-0.1153,-0.0714,
11.7300,-0.6866,0.0433,-0.0825,0.0084,-0.1153,-0.0714,
11.7310,-0.6866,0.0433,-0.0825,0.0084,-0.1153,-0.0714,
11.7330,-0.6866,0.0433,-0.0825,-0.0233,-0.0909,-0.0750,
11.7340,-0.5917,-0.0142,0.0306,-0.0233,-0.0909,-0.0750,
11.7870,-0.5917,-0.0142,0.0306,-0.0233,-0.0909,-0.0750,
11.7890,-0.5917,-0.0142,0.0306,-0.0233,-0.0909,-0.0750,
11.7910,-0.5917,-0.0142,0.0306,-0.0233,-0.0909,-0.0750,
11.7920,-0.5917,-0.0142,0.0306,-0.0392,-0.0689,-0.0657,
11.7930,-0.5532,-0.0361,0.0915,-0.0392,-0.0689,-0.0657,
11.8450,-0.5532,-0.0361,0.0915,-0.0392,-0.0689,-0.0657,
11.8470,-0.5532,-0.0361,0.0915,-0.0392,-0.0689,-0.0657,
11.8490,-0.5532,-0.0361,0.0915,-0.0392,-0.0689,-0.0657,
11.8500,-0.5532,-0.0361,0.0915,-0.0368,-0.0327,-0.0710,
11.8510,-0.4573,-0.0117,0.0958,-0.0368,-0.0327,-0.0710,
11.9050,-0.4573,-0.0117,0.0958,-0.0368,-0.0327,-0.0710,
11.9070,-0.4573,-0.0117,0.0958,-0.0368,-0.0327,-0.0710,
11.9080,-0.4573,-0.0117,0.0958,-0.0368,-0.0327,-0.0710,
11.9090,-0.4573,-0.0117,0.0958,-0.0506,0.0276,-0.0673,
11.9100,-0.4863,-0.0269,-0.0019,-0.0506,0.0276,-0.0673,
11.9630,-0.4863,-0.0269,-0.0019,-0.0506,0.0276,-0.0673,
11.9650,-0.4863,-0.0269,-0.0019,-0.0506,0.0276,-0.0673,
11.9660,-0.4863,-0.0269,-0.0019,-0.0506,0.0276,-0.0673,
11.9670,-0.4863,-0.0269,-0.0019,-0.0787,0.0508,-0.0201,
11.9680,-0.5491,-0.2801,0.2118,-0.0787,0.0508,-0.0201,
12.0220,-0.5491,-0.2801,0.2118,-0.0787,0.0508,-0.0201,
12.0230,-0.5491,-0.2801,0.2118,-0.0787,0.0508,-0.0201,
12.0250,-0.5491,-0.2801,0.2118,-0.0787,0.0508,-0.0201,
12.0260,-0.5192,0.0019,0.1065,-0.0787,0.0508,-0.0201,
12.0280,-0.5192,0.0019,0.1065,-0.0327,0.1082,0.0170,
12.0800,-0.5192,0.0019,0.1065,-0.0327,0.1082,0.0170,
12.0830,-0.5192,0.0019,0.1065,-0.0327,0.1082,0.0170,
12.0840,-0.5192,0.0019,0.1065,-0.0327,0.1082,0.0170,
12.0850,-0.5192,0.0019,0.1065,-0.0238,0.1270,0.0593,
12.0870,-0.7250,-0.0140,-0.0992,-0.0238,0.1270,0.0593,
12.1380,-0.7250,-0.0140,-0.0992,-0.0238,0.1270,0.0593,
12.1400,-0.7250,-0.0140,-0.0992,-0.0238,0.1270,0.0593,
12.1400,-0.7250,-0.0140,-0.0992,-0.0238,0.1270,0.0593,
12.1410,-0.7250,-0.0140,-0.0992,-0.0518,0.0989,0.1013,
12.1410,-0.7551,-0.2042,0.0462,-0.0518,0.0989,0.1013,
12.1960,-0.7551,-0.2042,0.0462,-0.0518,0.0989,0.1013,
12.1970,-0.7551,-0.2042,0.0462,-0.0518,0.0989,0.1013,
12.1980,-0.7551,-0.2042,0.0462,-0.0518,0.0989,0.1013,
12.1990,-0.7551,-0.2042,0.0462,-0.0323,0.0508,0.1326,
12.1990,-0.8083,-0.0197,0.0728,-0.0323,0.0508,0.1326,
12.2560,-0.8083,-0.0197,0.0728,-0.0323,0.0508,0.1326,
12.2580,-0.8083,-0.0197,0.0728,-0.0323,0.0508,0.1326,
12.2590,-0.8083,-0.0197,0.0728,-0.0323,0.0508,0.1326,
12.2600,-0.8083,-0.0197,0.0728,-0.0144,-0.0017,0.1506,
12.2620,-0.6483,-0.2180,0.0007,-0.0144,-0.0017,0.1506,
12.3140,-0.6483,-0.2180,0.0007,-0.0144,-0.0017,0.1506,
12.3160,-0.6483,-0.2180,0.0007,-0.0144,-0.0017,0.1506,
12.3170,-0.6483,-0.2180,0.0007,-0.0144,-0.0017,0.1506,
12.3190,-0.6483,-0.2180,0.0007,0.0312,-0.0115,0.1660,
12.3200,-0.2873,0.2699,0.0137,0.0312,-0.0115,0.1660,
12.3730,-0.2873,0.2699,0.0137,0.0312,-0.0115,0.1660,
12.3750,-0.2873,0.2699,0.0137,0.0312,-0.0115,0.1660,
12.3770,-0.2873,0.2699,0.0137,0.0312,-0.0115,0.1660,
12.3780,-0.2873,0.2699,0.0137,0.0487,0.0244,0.1880,
12.3790,0.0324,0.1233,-0.2389,0.0487,0.0244,0.1880,
12.4310,0.0324,0.1233,-0.2389,0.0487,0.0244,0.1880,
12.4330,0.0324,0.1233,-0.2389,0.0487,0.0244,0.1880,
12.4350,0.0324,0.1233,-0.2389,0.0487,0.0244,0.1880,
12.4360,0.0324,0.1233,-0.2389,0.0076,0.0292,0.1860,
12.4370,0.2283,-0.0977,0.0160,0.0076,0.0292,0.1860,
12.4890,0.2283,-0.0977,0.0160,0.0076,0.0292,0.1860,
12.4900,0.2283,-0.0977,0.0160,0.0076,0.0292,0.1860,
12.4910,0.2283,-0.0977,0.0160,0.0076,0.0292,0.1860,
12.4910,0.2283,-0.0977,0.0160,0.0157,0.1327,0.1322,
12.4920,0.4211,0.2502,-0.1708,0.0157,0.1327,0.1322,
12.5490,0.4211,0.2502,-0.1708,0.0157,0.1327,0.1322,
12.5500,0.4211,0.2502,-0.1708,0.0157,0.1327,0.1322,
12.5520,0.4211,0.2502,-0.1708,0.0157,0.1327,0.1322,
12.5530,0.4463,0.0809,0.1203,0.0157,0.1327,0.1322,
12.5550,0.4463,0.0809,0.1203,-0.0405,0.1420,0.1302,
12.6070,0.4463,0.0809,0.1203,-0.0405,0.1420,0.1302,
12.6090,0.4463,0.0809,0.1203,-0.0405,0.1420,0.1302,
12.6100,0.4463,0.0809,0.1203,-0.0405,0.1420,0.1302,
12.6120,0.2869,0.1824,-0.2006,-0.0405,0.1420,0.1302,
12.6130,0.2869,0.1824,-0.2006,0.0133,0.1877,0.1273,
12.6660,0.2869,0.1824,-0.2006,0.0133,0.1877,0.1273,
12.6680,0.2869,0.1824,-0.2006,0.0133,0.1877,0.1273,
12.6690,0.2869,0.1824,-0.2006,0.0133,0.1877,0.1273,
12.6700,0.4069,-0.1789,-0.0144,0.0133,0.1877,0.1273,
12.6720,0.4069,-0.1789,-0.0144,-0.0140,0.1697,0.1420,
12.7240,0.4069,-0.1789,-0.0144,-0.0140,0.1697,0.1420,
12.7260,0.4069,-0.1789,-0.0144,-0.0140,0.1697,0.1420,
12.7280,0.4069,-0.1789,-0.0144,-0.0140,0.1697,0.1420,
12.7290,0.4069,-0.1789,-0.0144,-0.0107,0.1522,0.1518,
12.7300,0.6360,-0.0830,0.0673,-0.0107,0.1522,0.1518,
12.7830,0.6360,-0.0830,0.0673,-0.0107,0.1522,0.1518,
12.7850,0.6360,-0.0830,0.0673,-0.0107,0.1522,0.1518,
12.7860,0.6360,-0.0830,0.0673,-0.0107,0.1522,0.1518,
12.7870,0.5070,-0.0909,0.1343,-0.0107,0.1522,0.1518,
12.7890,0.5070,-0.0909,0.1343,-0.0189,0.1400,0.1208,
12.8420,0.5070,-0.0909,0.1343,-0.0189,0.1400,0.1208,
12.8440,0.5070,-0.0909,0.1343,-0.0189,0.1400,0.1208,
12.8450,0.5070,-0.0909,0.1343,-0.0189,0.1400,0.1208,
12.8460,0.5070,-0.0909,0.1343,-0.0185,0.1266,0.0992,
12.8470,0.6207,-0.1427,0.1464,-0.0185,0.1266,0.0992,
12.9000,0.6207,-0.1427,0.1464,-0.0185,0.1266,0.0992,
12.9020,0.6207,-0.1427,0.1464,-0.0185,0.1266,0.0992,
12.9030,0.6207,-0.1427,0.1464,-0.0185,0.1266,0.0992,
12.9040,0.6207,-0.1427,0.1464,0.0072,0.1066,0.0235,
12.9050,0.3044,0.1708,0.1362,0.0072,0.1066,0.0235,
12.9590,0.3044,0.1708,0.1362,0.0072,0.1066,0.0235,
12.9610,0.3044,0.1708,0.1362,0.0072,0.1066,0.0235,
12.9630,0.3044,0.1708,0.1362,0.0072,0.1066,0.0235,
12.9650,0.3044,0.1708,0.1362,-0.0070,0.0480,0.0076,
12.9660,0.3922,-0.1314,0.2750,-0.0070,0.0480,0.0076,
13.0170,0.3922,-0.1314,0.2750,-0.0070,0.0480,0.0076,
13.0190,0.3922,-0.1314,0.2750,-0.0070,0.0480,0.0076,
13.0200,0.3922,-0.1314,0.2750,-0.0070,0.0480,0.0076,
13.0220,0.3635,0.0136,0.2046,-0.0070,0.0480,0.0076,
13.0230,0.3635,0.0136,0.2046,0.0226,0.0305,0.0064,
13.0750,0.3635,0.0136,0.2046,0.0226,0.0305,0.0064,
13.0770,0.3635,0.0136,0.2046,0.0226,0.0305,0.0064,
13.0780,0.3635,0.0136,0.2046,0.0226,0.0305,0.0064,
13.0800,0.3635,0.0136,0.2046,0.0100,-0.0103,0.0003,
13.0810,0.3368,0.1026,0.2077,0.0100,-0.0103,0.0003,
13.1350,0.3368,0.1026,0.2077,0.0100,-0.0103,0.0003,
13.1370,0.3368,0.1026,0.2077,0.0100,-0.0103,0.0003,
13.1380,0.3368,0.1026,0.2077,0.0100,-0.0103,0.0003,
13.1390,0.3368,0.1026,0.2077,-0.0067,-0.0567,-0.0164,
13.1400,0.3255,-0.0854,0.1128,-0.0067,-0.0567,-0.0164,
13.1930,0.3255,-0.0854,0.1128,-0.0067,-0.0567,-0.0164,
13.1950,0.3255,-0.0854,0.1128,-0.0067,-0.0567,-0.0164,
13.1970,0.3255,-0.0854,0.1128,-0.0067,-0.0567,-0.0164,
13.1980,0.3255,-0.0854,0.1128,0.0076,-0.0750,-0.0368,
13.2000,0.3572,-0.0514,0.0787,0.0076,-0.0750,-0.0368,
13.2510,0.3572,-0.0514,0.0787,0.0076,-0.0750,-0.0368,
13.2530,0.3572,-0.0514,0.0787,0.0076,-0.0750,-0.0368,
13.2550,0.3572,-0.0514,0.0787,0.0076,-0.0750,-0.0368,
13.2560,0.3572,-0.0514,0.0787,0.0255,-0.0950,-0.0636,
13.2570,0.2756,-0.0003,-0.0218,0.0255,-0.0950,-0.0636,
13.3100,0.2756,-0.0003,-0.0218,0.0255,-0.0950,-0.0636,
13.3120,0.2756,-0.0003,-0.0218,0.0255,-0.0950,-0.0636,
13.3130,0.2756,-0.0003,-0.0218,0.0255,-0.0950,-0.0636,
13.3150,0.2756,-0.0003,-0.0218,0.0096,-0.1007,-0.0799,
13.3160,0.2868,-0.1132,0.0381,0.0096,-0.1007,-0.0799,
13.3680,0.2868,-0.1132,0.0381,0.0096,-0.1007,-0.0799,
13.3710,0.2868,-0.1132,0.0381,0.0096,-0.1007,-0.0799,
13.3720,0.2868,-0.1132,0.0381,0.0096,-0.1007,-0.0799,
13.3730,0.1928,0.0850,-0.0354,0.0096,-0.1007,-0.0799,
13.3750,0.1928,0.0850,-0.0354,0.0214,-0.1133,-0.0901,
13.4270,0.1928,0.0850,-0.0354,0.0214,-0.1133,-0.0901,
13.4290,0.1928,0.0850,-0.0354,0.0214,-0.1133,-0.0901,
13.4300,0.1928,0.0850,-0.0354,0.0214,-0.1133,-0.0901,
13.4310,0.2475,-0.1150,-0.0055,0.0214,-0.1133,-0.0901,
13.4330,0.2475,-0.1150,-0.0055,-0.0001,-0.1206,-0.1015,
13.4870,0.2475,-0.1150,-0.0055,-0.0001,-0.1206,-0.1015,
13.4890,0.2475,-0.1150,-0.0055,-0.0001,-0.1206,-0.1015,
13.4900,0.2475,-0.1150,-0.0055,-0.0001,-0.1206,-0.1015,
13.4910,0.2455,-0.0061,-0.0044,-0.0001,-0.1206,-0.1015,
13.4930,0.2455,-0.0061,-0.0044,-0.0009,-0.1060,-0.1141,
13.5450,0.2455,-0.0061,-0.0044,-0.0009,-0.1060,-0.1141,
13.5470,0.2455,-0.0061,-0.0044,-0.0009,-0.1060,-0.1141,
13.5480,0.2455,-0.0061,-0.0044,-0.0009,-0.1060,-0.1141,
13.5500,0.2455,-0.0061,-0.0044,0.0239,-0.1051,-0.1292,
13.5510,0.3378,0.1479,0.0161,0.0239,-0.1051,-0.1292,
13.6030,0.3378,0.1479,0.0161,0.0239,-0.1051,-0.1292,
13.6050,0.3378,0.1479,0.0161,0.0239,-0.1051,-0.1292,
13.6060,0.3378,0.1479,0.0161,0.0239,-0.1051,-0.1292,
13.6070,0.3378,0.1479,0.0161,0.0475,-0.0815,-0.1618,
13.6080,-0.1751,0.2704,-0.2540,0.0475,-0.0815,-0.1618,
13.6620,-0.1751,0.2704,-0.2540,0.0475,-0.0815,-0.1618,
13.6640,-0.1751,0.2704,-0.2540,0.0475,-0.0815,-0.1618,
13.6650,-0.1751,0.2704,-0.2540,0.0475,-0.0815,-0.1618,
13.6660,-0.1146,-0.1645,-0.1934,0.0475,-0.0815,-0.1618,
13.6680,-0.1146,-0.1645,-0.1934,0.0284,-0.0787,-0.1386,
13.7200,-0.1146,-0.1645,-0.1934,0.0284,-0.0787,-0.1386,
13.7220,-0.1146,-0.1645,-0.1934,0.0284,-0.0787,-0.1386,
13.7230,-0.1146,-0.1645,-0.1934,0.0284,-0.0787,-0.1386,
13.7250,-0.1146,-0.1645,-0.1934,0.0609,-0.0779,-0.1194,
13.7260,-0.6117,-0.0342,-0.1458,0.0609,-0.0779,-0.1194,
13.7790,-0.6117,-0.0342,-0.1458,0.0609,-0.0779,-0.1194,
13.7810,-0.6117,-0.0342,-0.1458,0.0609,-0.0779,-0.1194,
13.7820,-0.6117,-0.0342,-0.1458,0.0609,-0.0779,-0.1194,
13.7830,-0.7126,0.0682,-0.1642,0.0609,-0.0779,-0.1194,
13.7850,-0.7126,0.0682,-0.1642,0.0870,-0.1495,-0.1076,
13.8370,-0.7126,0.0682,-0.1642,0.0870,-0.1495,-0.1076,
13.8390,-0.7126,0.0682,-0.1642,0.0870,-0.1495,-0.1076,
13.8410,-0.7126,0.0682,-0.1642,0.0870,-0.1495,-0.1076,
13.8420,-0.7126,0.0682,-0.1642,0.0776,-0.1760,-0.0946,
13.8430,-0.8119,0.1866,-0.0887,0.0776,-0.1760,-0.0946,
13.8960,-0.8119,0.1866,-0.0887,0.0776,-0.1760,-0.0946,
13.8980,-0.8119,0.1866,-0.0887,0.0776,-0.1760,-0.0946,
13.8990,-0.8119,0.1866,-0.0887,0.0776,-0.1760,-0.0946,
13.9000,-0.8119,0.1866,-0.0887,0.0349,-0.2200,-0.1040,
13.9020,-0.6119,0.1020,0.0142,0.0349,-0.2200,-0.1040,
13.9550,-0.6119,0.1020,0.0142,0.0349,-0.2200,-0.1040,
13.9570,-0.6119,0.1020,0.0142,0.0349,-0.2200,-0.1040,
13.9580,-0.6119,0.1020,0.0142,0.0349,-0.2200,-0.1040,
13.9590,-0.6119,0.1020,0.0142,-0.0185,-0.2216,-0.1092,
13.9610,-0.5439,0.0608,0.1690,-0.0185,-0.2216,-0.1092,
14.0130,-0.5439,0.0608,0.1690,-0.0185,-0.2216,-0.1092,
14.0150,-0.5439,0.0608,0.1690,-0.0185,-0.2216,-0.1092,
14.0170,-0.5439,0.0608,0.1690,-0.0185,-0.2216,-0.1092,
14.0180,-0.6139,-0.0982,0.1973,-0.0185,-0.2216,-0.1092,
14.0190,-0.6139,-0.0982,0.1973,-0.0547,-0.1650,-0.1076,
14.0710,-0.6139,-0.0982,0.1973,-0.0547,-0.1650,-0.1076,
14.0730,-0.6139,-0.0982,0.1973,-0.0547,-0.1650,-0.1076,
14.0750,-0.6139,-0.0982,0.1973,-0.0547,-0.1650,-0.1076,
14.0760,-0.6139,-0.0982,0.1973,-0.0478,-0.1255,-0.0881,
14.0770,-0.5236,-0.0104,0.0827,-0.0478,-0.1255,-0.0881,
14.1290,-0.5236,-0.0104,0.0827,-0.0478,-0.1255,-0.0881,
14.1300,-0.5236,-0.0104,0.0827,-0.0478,-0.1255,-0.0881,
14.1310,-0.5236,-0.0104,0.0827,-0.0478,-0.1255,-0.0881,
14.1310,-0.5236,-0.0104,0.0827,-0.0421,-0.1047,-0.0820,
14.1320,-0.5578,-0.1604,0.1409,-0.0421,-0.1047,-0.0820,
14.1890,-0.5578,-0.1604,0.1409,-0.0421,-0.1047,-0.0820,
14.1900,-0.5578,-0.1604,0.1409,-0.0421,-0.1047,-0.0820,
14.1910,-0.5578,-0.1604,0.1409,-0.0421,-0.1047,-0.0820,
14.1910,-0.4334,-0.0208,0.0140,-0.0421,-0.1047,-0.0820,
14.1920,-0.4334,-0.0208,0.0140,-0.0217,-0.0905,-0.0669,
14.2480,-0.4334,-0.0208,0.0140,-0.0217,-0.0905,-0.0669,
14.2490,-0.4334,-0.0208,0.0140,-0.0217,-0.0905,-0.0669,
14.2490,-0.4334,-0.0208,0.0140,-0.0217,-0.0905,-0.0669,
14.2500,-0.4334,-0.0208,0.0140,-0.0221,-0.0514,-0.0477,
14.2500,-0.3946,-0.0683,-0.0023,-0.0221,-0.0514,-0.0477,
14.3060,-0.4772,-0.0091,0.0293,-0.0221,-0.0514,-0.0477,
14.3090,-0.4772,-0.0091,0.0293,-0.0221,-0.0514,-0.0477,
14.3100,-0.4772,-0.0091,0.0293,-0.0221,-0.0514,-0.0477,
14.3110,-0.4772,-0.0091,0.0293,-0.0221,-0.0514,-0.0477,
14.3120,-0.4772,-0.0091,0.0293,-0.0156,-0.0196,-0.0266,
14.3650,-0.4772,-0.0091,0.0293,-0.0156,-0.0196,-0.0266,
14.3670,-0.4772,-0.0091,0.0293,-0.0156,-0.0196,-0.0266,
14.3680,-0.4772,-0.0091,0.0293,-0.0156,-0.0196,-0.0266,
14.3690,-0.3658,-0.0345,0.0452,-0.0156,-0.0196,-0.0266,
14.3700,-0.3658,-0.0345,0.0452,-0.0209,-0.0233,0.0052,
14.4230,-0.3658,-0.0345,0.0452,-0.0209,-0.0233,0.0052,
14.4250,-0.3658,-0.0345,0.0452,-0.0209,-0.0233,0.0052,
14.4260,-0.3658,-0.0345,0.0452,-0.0209,-0.0233,0.0052,
14.4270,-0.3658,-0.0345,0.0452,-0.0205,-0.0127,0.0341,
14.4280,-0.4082,-0.0859,0.1191,-0.0205,-0.0127,0.0341,
14.4820,-0.4082,-0.0859,0.1191,-0.0205,-0.0127,0.0341,
14.4840,-0.4082,-0.0859,0.1191,-0.0205,-0.0127,0.0341,
14.4860,-0.4082,-0.0859,0.1191,-0.0205,-0.0127,0.0341,
14.4870,-0.4082,-0.0859,0.1191,-0.0160,-0.0033,0.0630,
14.4890,-0.3391,-0.0276,0.0359,-0.0160,-0.0033,0.0630,
14.5410,-0.3391,-0.0276,0.0359,-0.0160,-0.0033,0.0630,
14.5440,-0.3391,-0.0276,0.0359,-0.0160,-0.0033,0.0630,
14.5450,-0.3391,-0.0276,0.0359,-0.0160,-0.0033,0.0630,
14.5460,-0.3391,-0.0276,0.0359,-0.0099,-0.0038,0.0931,
14.5460,-0.3240,-0.0370,0.0933,-0.0099,-0.0038,0.0931,
14.5990,-0.3240,-0.0370,0.0933,-0.0099,-0.0038,0.0931,
14.6010,-0.3240,-0.0370,0.0933,-0.0099,-0.0038,0.0931,
14.6020,-0.3240,-0.0370,0.0933,-0.0099,-0.0038,0.0931,
14.6030,-0.3240,-0.0370,0.0933,-0.0026,0.0003,0.1172,
14.6050,-0.2848,-0.0286,0.0058,-0.0026,0.0003,0.1172,
14.6570,-0.2848,-0.0286,0.0058,-0.0026,0.0003,0.1172,
14.6590,-0.2848,-0.0286,0.0058,-0.0026,0.0003,0.1172,
14.6610,-0.2848,-0.0286,0.0058,-0.0026,0.0003,0.1172,
14.6620,-0.2347,-0.0682,0.0706,-0.0026,0.0003,0.1172,
14.6630,-0.2347,-0.0682,0.0706,-0.0087,-0.0176,0.1314,
14.7160,-0.2347,-0.0682,0.0706,-0.0087,-0.0176,0.1314,
14.7180,-0.2347,-0.0682,0.0706,-0.0087,-0.0176,0.1314,
14.7200,-0.2347,-0.0682,0.0706,-0.0087,-0.0176,0.1314,
14.7210,-0.2347,-0.0682,0.0706,0.0068,-0.0152,0.1379,
14.7220,-0.2299,-0.0424,-0.0354,0.0068,-0.0152,0.1379,
14.7750,-0.2299,-0.0424,-0.0354,0.0068,-0.0152,0.1379,
14.7770,-0.2299,-0.0424,-0.0354,0.0068,-0.0152,0.1379,
14.7780,-0.2299,-0.0424,-0.0354,0.0068,-0.0152,0.1379,
14.7790,-0.2299,-0.0424,-0.0354,0.0084,-0.0123,0.1412,
14.7800,-0.1411,0.1686,-0.1070,0.0084,-0.0123,0.1412,
14.8330,-0.1411,0.1686,-0.1070,0.0084,-0.0123,0.1412,
14.8350,-0.1411,0.1686,-0.1070,0.0084,-0.0123,0.1412,
14.8360,-0.1411,0.1686,-0.1070,0.0084,-0.0123,0.1412,
14.8380,-0.1411,0.1686,-0.1070,0.0003,0.0081,0.1302,
14.8390,0.2264,0.3769,-0.2215,0.0003,0.0081,0.1302,
14.8920,0.2264,0.3769,-0.2215,0.0003,0.0081,0.1302,
14.8940,0.2264,0.3769,-0.2215,0.0003,0.0081,0.1302,
14.8950,0.2264,0.3769,-0.2215,0.0003,0.0081,0.1302,
14.8960,0.2264,0.3769,-0.2215,-0.0294,0.0386,0.1094,
14.8970,0.2678,-0.1402,-0.1404,-0.0294,0.0386,0.1094,
14.9500,0.2678,-0.1402,-0.1404,-0.0294,0.0386,0.1094,
14.9520,0.2678,-0.1402,-0.1404,-0.0294,0.0386,0.1094,
14.9530,0.2678,-0.1402,-0.1404,-0.0294,0.0386,0.1094,
14.9560,0.2678,-0.1402,-0.1404,-0.0152,0.1127,0.0707,
14.9570,0.3505,0.0230,-0.0960,-0.0152,0.1127,0.0707,
15.0090,0.3505,0.0230,-0.0960,-0.0152,0.1127,0.0707,
15.0110,0.3505,0.0230,-0.0960,-0.0152,0.1127,0.0707,
15.0120,0.3505,0.0230,-0.0960,-0.0152,0.1127,0.0707,
15.0130,0.3505,0.0230,-0.0960,0.0161,0.1253,0.0752,
15.0140,0.5091,0.1180,-0.2047,0.0161,0.1253,0.0752,
15.0670,0.5091,0.1180,-0.2047,0.0161,0.1253,0.0752,
15.0700,0.5091,0.1180,-0.2047,0.0161,0.1253,0.0752,
15.0720,0.5091,0.1180,-0.2047,0.0161,0.1253,0.0752,
15.0730,0.5091,0.1180,-0.2047,0.0336,0.0972,0.0997,
15.0740,0.5418,0.0918,-0.0988,0.0336,0.0972,0.0997,
15.1260,0.5418,0.0918,-0.0988,0.0336,0.0972,0.0997,
15.1280,0.5418,0.0918,-0.0988,0.0336,0.0972,0.0997,
15.1290,0.5418,0.0918,-0.0988,0.0336,0.0972,0.0997,
15.1310,0.5418,0.0918,-0.0988,0.0394,0.0997,0.1196,
15.1320,0.7239,-0.0789,-0.0616,0.0394,0.0997,0.1196,
15.1840,0.7239,-0.0789,-0.0616,0.0394,0.0997,0.1196,
15.1860,0.7239,-0.0789,-0.0616,0.0394,0.0997,0.1196,
15.1870,0.7239,-0.0789,-0.0616,0.0394,0.0997,0.1196,
15.1890,0.7239,-0.0789,-0.0616,0.0174,0.0850,0.1286,
15.1900,0.7687,-0.0614,0.1608,0.0174,0.0850,0.1286,
15.2430,0.7687,-0.0614,0.1608,0.0174,0.0850,0.1286,
15.2450,0.7687,-0.0614,0.1608,0.0174,0.0850,0.1286,
15.2460,0.7687,-0.0614,0.1608,0.0174,0.0850,0.1286,
15.2470,0.7687,-0.0614,0.1608,0.0153,0.0614,0.1192,
15.2480,0.7921,0.1520,0.1145,0.0153,0.0614,0.1192,
15.3010,0.7921,0.1520,0.1145,0.0153,0.0614,0.1192,
15.3030,0.7921,0.1520,0.1145,0.0153,0.0614,0.1192,
15.3050,0.7921,0.1520,0.1145,0.0153,0.0614,0.1192,
15.3060,0.7921,0.1520,0.1145,-0.0144,0.0675,0.0997,
15.3070,0.7198,0.0079,0.0929,-0.0144,0.0675,0.0997,
15.3600,0.7198,0.0079,0.0929,-0.0144,0.0675,0.0997,
15.3620,0.7198,0.0079,0.0929,-0.0144,0.0675,0.0997,
15.3630,0.7198,0.0079,0.0929,-0.0144,0.0675,0.0997,
15.3640,0.7198,0.0079,0.0929,-0.0286,0.0732,0.0785,
15.3650,0.7613,-0.0673,0.1215,-0.0286,0.0732,0.0785,
15.4180,0.7613,-0.0673,0.1215,-0.0286,0.0732,0.0785,
15.4200,0.7613,-0.0673,0.1215,-0.0286,0.0732,0.0785,
15.4220,0.7613,-0.0673,0.1215,-0.0286,0.0732,0.0785,
15.4230,0.7613,-0.0673,0.1215,-0.0168,0.0850,0.0589,
15.4240,0.5890,-0.0264,0.0725,-0.0168,0.0850,0.0589,
15.4770,0.5890,-0.0264,0.0725,-0.0168,0.0850,0.0589,
15.4790,0.5890,-0.0264,0.0725,-0.0168,0.0850,0.0589,
15.4810,0.5890,-0.0264,0.0725,-0.0168,0.0850,0.0589,
15.4820,0.4895,-0.0157,0.0988,-0.0168,0.0850,0.0589,
15.4830,0.4895,-0.0157,0.0988,-0.0152,0.0826,0.0418,
15.5360,0.4895,-0.0157,0.0988,-0.0152,0.0826,0.0418,
15.5380,0.4895,-0.0157,0.0988,-0.0152,0.0826,0.0418,
15.5390,0.4895,-0.0157,0.0988,-0.0152,0.0826,0.0418,
15.5400,0.4895,-0.0157,0.0988,-0.0201,0.0520,0.0129,
15.5410,0.3736,0.0571,0.0411,-0.0201,0.0520,0.0129,
15.5970,0.3736,0.0571,0.0411,-0.0201,0.0520,0.0129,
15.5990,0.3736,0.0571,0.0411,-0.0201,0.0520,0.0129,
15.6000,0.3736,0.0571,0.0411,-0.0201,0.0520,0.0129,
15.6010,0.3656,-0.0183,0.0913,-0.0201,0.0520,0.0129,
15.6030,0.3656,-0.0183,0.0913,-0.0417,0.0138,-0.0103,
15.6530,0.3656,-0.0183,0.0913,-0.0417,0.0138,-0.0103,
15.6550,0.3656,-0.0183,0.0913,-0.0417,0.0138,-0.0103,
15.6560,0.3656,-0.0183,0.0913,-0.0417,0.0138,-0.0103,
15.6570,0.4185,-0.0858,0.0727,-0.0417,0.0138,-0.0103,
15.6590,0.4185,-0.0858,0.0727,-0.0388,-0.0009,-0.0347,
15.7110,0.4185,-0.0858,0.0727,-0.0388,-0.0009,-0.0347,
15.7130,0.4185,-0.0858,0.0727,-0.0388,-0.0009,-0.0347,
15.7150,0.4185,-0.0858,0.0727,-0.0388,-0.0009,-0.0347,
15.7160,0.4185,-0.0858,0.0727,-0.0238,-0.0115,-0.0620,
15.7170,0.3992,-0.0470,0.0590,-0.0238,-0.0115,-0.0620,
15.7700,0.3992,-0.0470,0.0590,-0.0238,-0.0115,-0.0620,
15.7720,0.3992,-0.0470,0.0590,-0.0238,-0.0115,-0.0620,
15.7730,0.3992,-0.0470,0.0590,-0.0238,-0.0115,-0.0620,
15.7740,0.3992,-0.0470,0.0590,-0.0083,-0.0257,-0.0901,
15.7760,0.3460,-0.0251,-0.0022,-0.0083,-0.0257,-0.0901,
15.8280,0.3460,-0.0251,-0.0022,-0.0083,-0.0257,-0.0901,
15.8300,0.3460,-0.0251,-0.0022,-0.0083,-0.0257,-0.0901,
15.8320,0.3460,-0.0251,-0.0022,-0.0083,-0.0257,-0.0901,
15.8330,0.3460,-0.0251,-0.0022,-0.0050,-0.0282,-0.1174,
15.8340,0.3077,0.0024,-0.0166,-0.0050,-0.0282,-0.1174,
15.8870,0.3077,0.0024,-0.0166,-0.0050,-0.0282,-0.1174,
15.8890,0.3077,0.0024,-0.0166,-0.0050,-0.0282,-0.1174,
15.8910,0.3077,0.0024,-0.0166,-0.0050,-0.0282,-0.1174,
15.8920,0.3077,0.0024,-0.0166,-0.0099,-0.0461,-0.1386,
15.8930,0.3279,-0.0581,0.0304,-0.0099,-0.0461,-0.1386,
15.9460,0.3279,-0.0581,0.0304,-0.0099,-0.0461,-0.1386,
15.9480,0.3279,-0.0581,0.0304,-0.0099,-0.0461,-0.1386,
15.9490,0.3279,-0.0581,0.0304,-0.0099,-0.0461,-0.1386,
15.9500,0.3279,-0.0581,0.0304,0.0007,-0.0579,-0.1528,
15.9520,0.3055,-0.0046,0.0121,0.0007,-0.0579,-0.1528,
16.0050,0.3055,-0.0046,0.0121,0.0007,-0.0579,-0.1528,
16.0060,0.3055,-0.0046,0.0121,0.0007,-0.0579,-0.1528,
16.0070,0.3055,-0.0046,0.0121,0.0007,-0.0579,-0.1528,
16.0070,0.3055,-0.0046,0.0121,0.0125,-0.0807,-0.1622,
16.0080,0.1437,0.0990,0.0110,0.0125,-0.0807,-0.1622,
16.0630,0.1437,0.0990,0.0110,0.0125,-0.0807,-0.1622,
16.0650,0.1437,0.0990,0.0110,0.0125,-0.0807,-0.1622,
16.0660,0.1437,0.0990,0.0110,0.0125,-0.0807,-0.1622,
16.0670,-0.2781,0.3108,-0.3006,0.0125,-0.0807,-0.1622,
16.0690,-0.2781,0.3108,-0.3006,0.0503,-0.1027,-0.1585,
16.1220,-0.2781,0.3108,-0.3006,0.0503,-0.1027,-0.1585,
16.1240,-0.2781,0.3108,-0.3006,0.0503,-0.1027,-0.1585,
16.1250,-0.2781,0.3108,-0.3006,0.0503,-0.1027,-0.1585,
16.1260,-0.5010,-0.2897,-0.0348,0.0503,-0.1027,-0.1585,
16.1280,-0.5010,-0.2897,-0.0348,0.0275,-0.1161,-0.1422,
16.1800,-0.5010,-0.2897,-0.0348,0.0275,-0.1161,-0.1422,
16.1820,-0.5010,-0.2897,-0.0348,0.0275,-0.1161,-0.1422,
16.1840,-0.5010,-0.2897,-0.0348,0.0275,-0.1161,-0.1422,
16.1850,-0.5010,-0.2897,-0.0348,0.0768,-0.1886,-0.1170,
16.1870,-0.8911,0.2118,-0.2268,0.0768,-0.1886,-0.1170,
16.2390,-0.8911,0.2118,-0.2268,0.0768,-0.1886,-0.1170,
16.2410,-0.8911,0.2118,-0.2268,0.0768,-0.1886,-0.1170,
16.2420,-0.8911,0.2118,-0.2268,0.0768,-0.1886,-0.1170,
16.2440,-0.8911,0.2118,-0.2268,0.0532,-0.1947,-0.1153,
16.2460,-0.7690,0.1895,-0.1029,0.0532,-0.1947,-0.1153,
16.2970,-0.7690,0.1895,-0.1029,0.0532,-0.1947,-0.1153,
16.2990,-0.7690,0.1895,-0.1029,0.0532,-0.1947,-0.1153,
16.3000,-0.7690,0.1895,-0.1029,0.0532,-0.1947,-0.1153,
16.3010,-0.7690,0.1895,-0.1029,0.0381,-0.1780,-0.1288,
16.3020,-0.6823,0.0400,-0.0528,0.0381,-0.1780,-0.1288,
16.3570,-0.7297,-0.0335,0.0499,0.0381,-0.1780,-0.1288,
16.3600,-0.7297,-0.0335,0.0499,0.0381,-0.1780,-0.1288,
16.3610,-0.7297,-0.0335,0.0499,0.0381,-0.1780,-0.1288,
16.3630,-0.7297,-0.0335,0.0499,0.0381,-0.1780,-0.1288,
16.3640,-0.7297,-0.0335,0.0499,0.0275,-0.1430,-0.1398,
16.4150,-0.7297,-0.0335,0.0499,0.0275,-0.1430,-0.1398,
16.4170,-0.7297,-0.0335,0.0499,0.0275,-0.1430,-0.1398,
16.4180,-0.7297,-0.0335,0.0499,0.0275,-0.1430,-0.1398,
16.4190,-0.7297,-0.0335,0.0499,0.0145,-0.1003,-0.1422,
16.4200,-0.8218,-0.0227,0.0500,0.0145,-0.1003,-0.1422,
16.4730,-0.8218,-0.0227,0.0500,0.0145,-0.1003,-0.1422,
16.4750,-0.8218,-0.0227,0.0500,0.0145,-0.1003,-0.1422,
16.4770,-0.8218,-0.0227,0.0500,0.0145,-0.1003,-0.1422,
16.4790,-0.6731,-0.0495,0.1223,0.0145,-0.1003,-0.1422,
16.4800,-0.6731,-0.0495,0.1223,-0.0026,-0.0986,-0.1231,
16.5310,-0.6731,-0.0495,0.1223,-0.0026,-0.0986,-0.1231,
16.5330,-0.6731,-0.0495,0.1223,-0.0026,-0.0986,-0.1231,
16.5350,-0.6731,-0.0495,0.1223,-0.0026,-0.0986,-0.1231,
16.5360,-0.6731,-0.0495,0.1223,-0.0103,-0.0827,-0.0966,
16.5370,-0.6573,-0.0648,0.1237,-0.0103,-0.0827,-0.0966,
16.5900,-0.6573,-0.0648,0.1237,-0.0103,-0.0827,-0.0966,
16.5920,-0.6573,-0.0648,0.1237,-0.0103,-0.0827,-0.0966,
16.5930,-0.6573,-0.0648,0.1237,-0.0103,-0.0827,-0.0966,
16.5940,-0.6573,-0.0648,0.1237,-0.0107,-0.0620,-0.0596,
16.5950,-0.5356,-0.0649,0.0663,-0.0107,-0.0620,-0.0596,
16.6490,-0.5356,-0.0649,0.0663,-0.0107,-0.0620,-0.0596,
16.6510,-0.5356,-0.0649,0.0663,-0.0107,-0.0620,-0.0596,
16.6520,-0.5356,-0.0649,0.0663,-0.0107,-0.0620,-0.0596,
16.6530,-0.5356,-0.0649,0.0663,-0.0136,-0.0327,-0.0258,
16.6540,-0.4924,-0.0193,0.0757,-0.0136,-0.0327,-0.0258,
16.7070,-0.4924,-0.0193,0.0757,-0.0136,-0.0327,-0.0258,
16.7090,-0.4924,-0.0193,0.0757,-0.0136,-0.0327,-0.0258,
16.7110,-0.4924,-0.0193,0.0757,-0.0136,-0.0327,-0.0258,
16.7120,-0.4924,-0.0193,0.0757,-0.0205,-0.0155,0.0089,
16.7130,-0.4065,0.0520,0.0751,-0.0205,-0.0155,0.0089,
16.7660,-0.4065,0.0520,0.0751,-0.0205,-0.0155,0.0089,
16.7680,-0.4065,0.0520,0.0751,-0.0205,-0.0155,0.0089,
16.7700,-0.4065,0.0520,0.0751,-0.0205,-0.0155,0.0089,
16.7710,-0.4065,0.0520,0.0751,-0.0291,-0.0054,0.0365,
16.7720,-0.3865,-0.0976,0.0779,-0.0291,-0.0054,0.0365,
16.8240,-0.3865,-0.0976,0.0779,-0.0291,-0.0054,0.0365,
16.8260,-0.3865,-0.0976,0.0779,-0.0291,-0.0054,0.0365,
16.8280,-0.3865,-0.0976,0.0779,-0.0291,-0.0054,0.0365,
16.8290,-0.4125,-0.0057,0.0462,-0.0291,-0.0054,0.0365,
16.8300,-0.4125,-0.0057,0.0462,-0.0156,0.0154,0.0577,
16.8830,-0.4125,-0.0057,0.0462,-0.0156,0.0154,0.0577,
16.8850,-0.4125,-0.0057,0.0462,-0.0156,0.0154,0.0577,
16.8860,-0.4125,-0.0057,0.0462,-0.0156,0.0154,0.0577,
16.8870,-0.3885,-0.0958,0.0303,-0.0156,0.0154,0.0577,
16.8890,-0.3885,-0.0958,0.0303,-0.0168,0.0186,0.0793,
16.9410,-0.3885,-0.0958,0.0303,-0.0168,0.0186,0.0793,
16.9430,-0.3885,-0.0958,0.0303,-0.0168,0.0186,0.0793,
16.9450,-0.3885,-0.0958,0.0303,-0.0168,0.0186,0.0793,
16.9460,-0.3885,-0.0958,0.0303,-0.0022,0.0113,0.1013,
16.9470,-0.3423,-0.0164,-0.0188,-0.0022,0.0113,0.1013,
17.0000,-0.3423,-0.0164,-0.0188,-0.0022,0.0113,0.1013,
17.0020,-0.3423,-0.0164,-0.0188,-0.0022,0.0113,0.1013,
17.0030,-0.3423,-0.0164,-0.0188,-0.0022,0.0113,0.1013,
17.0050,-0.4084,-0.1088,0.0139,-0.0022,0.0113,0.1013,
17.0060,-0.4084,-0.1088,0.0139,-0.0062,0.0064,0.1200,
17.0590,-0.4084,-0.1088,0.0139,-0.0062,0.0064,0.1200,
17.0600,-0.4084,-0.1088,0.0139,-0.0062,0.0064,0.1200,
17.0620,-0.4084,-0.1088,0.0139,-0.0062,0.0064,0.1200,
17.0630,-0.3038,-0.0009,-0.0723,-0.0062,0.0064,0.1200,
17.0650,-0.3038,-0.0009,-0.0723,0.0137,0.0089,0.1392,
17.1170,-0.3038,-0.0009,-0.0723,0.0137,0.0089,0.1392,
17.1190,-0.3038,-0.0009,-0.0723,0.0137,0.0089,0.1392,
17.1210,-0.3038,-0.0009,-0.0723,0.0137,0.0089,0.1392,
17.1220,-0.3038,-0.0009,-0.0723,0.0166,0.0077,0.1583,
17.1230,-0.2192,-0.0192,-0.0044,0.0166,0.0077,0.1583,
17.1760,-0.2192,-0.0192,-0.0044,0.0166,0.0077,0.1583,
17.1780,-0.2192,-0.0192,-0.0044,0.0166,0.0077,0.1583,
17.1790,-0.2192,-0.0192,-0.0044,0.0166,0.0077,0.1583,
17.1800,-0.2192,-0.0192,-0.0044,0.0475,0.0366,0.1721,
17.1810,0.4469,0.5593,-0.3973,0.0475,0.0366,0.1721,
17.2340,0.4469,0.5593,-0.3973,0.0475,0.0366,0.1721,
17.2360,0.4469,0.5593,-0.3973,0.0475,0.0366,0.1721,
17.2380,0.4469,0.5593,-0.3973,0.0475,0.0366,0.1721,
17.2390,0.4469,0.5593,-0.3973,0.0105,0.0773,0.1685,
17.2400,0.3120,-0.3254,-0.1112,0.0105,0.0773,0.1685,
17.2930,0.3120,-0.3254,-0.1112,0.0105,0.0773,0.1685,
17.2950,0.3120,-0.3254,-0.1112,0.0105,0.0773,0.1685,
17.2960,0.3120,-0.3254,-0.1112,0.0105,0.0773,0.1685,
17.2970,0.5971,0.1880,-0.2036,0.0105,0.0773,0.1685,
17.2990,0.5971,0.1880,-0.2036,0.0646,0.1555,0.1550,
17.3510,0.5971,0.1880,-0.2036,0.0646,0.1555,0.1550,
17.3530,0.5971,0.1880,-0.2036,0.0646,0.1555,0.1550,
17.3540,0.5971,0.1880,-0.2036,0.0646,0.1555,0.1550,
17.3560,0.5971,0.1880,-0.2036,0.0634,0.1763,0.1355,
17.3570,0.7815,0.2564,-0.1500,0.0634,0.1763,0.1355,
17.4100,0.7815,0.2564,-0.1500,0.0634,0.1763,0.1355,
17.4120,0.7815,0.2564,-0.1500,0.0634,0.1763,0.1355,
17.4130,0.7815,0.2564,-0.1500,0.0634,0.1763,0.1355,
17.4150,0.7815,0.2564,-0.1500,0.0540,0.1640,0.0992,
17.4160,0.5718,-0.0055,-0.0764,0.0540,0.1640,0.0992,
17.4670,0.5718,-0.0055,-0.0764,0.0540,0.1640,0.0992,
17.4680,0.5718,-0.0055,-0.0764,0.0540,0.1640,0.0992,
17.4690,0.5718,-0.0055,-0.0764,0.0540,0.1640,0.0992,
17.4690,0.5718,-0.0055,-0.0764,0.0735,0.1518,0.1025,
17.4690,0.6066,0.0235,-0.1324,0.0735,0.1518,0.1025,
17.5260,0.6066,0.0235,-0.1324,0.0735,0.1518,0.1025,
17.5280,0.6066,0.0235,-0.1324,0.0735,0.1518,0.1025,
17.5280,0.6066,0.0235,-0.1324,0.0735,0.1518,0.1025,
17.5290,0.6066,0.0235,-0.1324,0.0361,0.1192,0.1188,
17.5290,0.6330,0.1043,-0.0409,0.0361,0.1192,0.1188,
17.5860,0.6330,0.1043,-0.0409,0.0361,0.1192,0.1188,
17.5880,0.6330,0.1043,-0.0409,0.0361,0.1192,0.1188,
17.5890,0.6330,0.1043,-0.0409,0.0361,0.1192,0.1188,
17.5900,0.6330,0.1043,-0.0409,-0.0103,0.1062,0.1102,
17.5910,0.5783,-0.0356,0.0904,-0.0103,0.1062,0.1102,
17.6450,0.5783,-0.0356,0.0904,-0.0103,0.1062,0.1102,
17.6470,0.5783,-0.0356,0.0904,-0.0103,0.1062,0.1102,
17.6490,0.5783,-0.0356,0.0904,-0.0103,0.1062,0.1102,
17.6500,0.5783,-0.0356,0.0904,-0.0079,0.0785,0.1041,
17.6510,0.7012,0.0168,0.0503,-0.0079,0.0785,0.1041,
17.7030,0.7012,0.0168,0.0503,-0.0079,0.0785,0.1041,
17.7050,0.7012,0.0168,0.0503,-0.0079,0.0785,0.1041,
17.7060,0.7012,0.0168,0.0503,-0.0079,0.0785,0.1041,
17.7070,0.6860,-0.0491,0.1254,-0.0079,0.0785,0.1041,
17.7090,0.6860,-0.0491,0.1254,-0.0119,0.0549,0.0980,
17.7620,0.6860,-0.0491,0.1254,-0.0119,0.0549,0.0980,
17.7640,0.6860,-0.0491,0.1254,-0.0119,0.0549,0.0980,
17.7650,0.6860,-0.0491,0.1254,-0.0119,0.0549,0.0980,
17.7660,0.6105,0.0646,0.0387,-0.0119,0.0549,0.0980,
17.7680,0.6105,0.0646,0.0387,-0.0046,0.0158,0.0813,
17.8200,0.6105,0.0646,0.0387,-0.0046,0.0158,0.0813,
17.8220,0.6105,0.0646,0.0387,-0.0046,0.0158,0.0813,
17.8230,0.6105,0.0646,0.0387,-0.0046,0.0158,0.0813,
17.8250,0.6744,0.0812,-0.0284,-0.0046,0.0158,0.0813,
17.8270,0.6744,0.0812,-0.0284,-0.0128,-0.0327,0.0667,
17.8810,0.6744,0.0812,-0.0284,-0.0128,-0.0327,0.0667,
17.8830,0.6744,0.0812,-0.0284,-0.0128,-0.0327,0.0667,
17.8840,0.6744,0.0812,-0.0284,-0.0128,-0.0327,0.0667,
17.8850,0.6744,0.0812,-0.0284,-0.0291,-0.0510,0.0382,
17.8860,0.4120,-0.0266,0.0602,-0.0291,-0.0510,0.0382,
17.9360,0.4120,-0.0266,0.0602,-0.0291,-0.0510,0.0382,
17.9370,0.4120,-0.0266,0.0602,-0.0291,-0.0510,0.0382,
17.9370,0.4120,-0.0266,0.0602,-0.0291,-0.0510,0.0382,
17.9380,0.4120,-0.0266,0.0602,-0.0437,-0.0811,0.0235,
17.9380,0.6944,-0.1071,0.1125,-0.0437,-0.0811,0.0235,
17.9950,0.6944,-0.1071,0.1125,-0.0437,-0.0811,0.0235,
17.9950,0.6944,-0.1071,0.1125,-0.0437,-0.0811,0.0235,
17.9960,0.6944,-0.1071,0.1125,-0.0437,-0.0811,0.0235,
17.9960,0.6944,-0.1071,0.1125,-0.0315,-0.0563,-0.0205,
17.9970,0.6623,-0.0753,0.0479,-0.0315,-0.0563,-0.0205,
18.0550,0.6623,-0.0753,0.0479,-0.0315,-0.0563,-0.0205,
18.0560,0.6623,-0.0753,0.0479,-0.0315,-0.0563,-0.0205,
18.0580,0.6623,-0.0753,0.0479,-0.0315,-0.0563,-0.0205,
18.0590,0.6449,-0.0105,-0.0154,-0.0315,-0.0563,-0.0205,
18.0600,0.6449,-0.0105,-0.0154,-0.0172,-0.0331,-0.0657,
18.1130,0.6449,-0.0105,-0.0154,-0.0172,-0.0331,-0.0657,
18.1150,0.6449,-0.0105,-0.0154,-0.0172,-0.0331,-0.0657,
18.1170,0.6449,-0.0105,-0.0154,-0.0172,-0.0331,-0.0657,
18.1180,0.6449,-0.0105,-0.0154,-0.0136,-0.0062,-0.1105,
18.1190,0.6446,-0.1339,0.0276,-0.0136,-0.0062,-0.1105,
18.1700,0.6446,-0.1339,0.0276,-0.0136,-0.0062,-0.1105,
18.1710,0.6446,-0.1339,0.0276,-0.0136,-0.0062,-0.1105,
18.1720,0.6446,-0.1339,0.0276,-0.0136,-0.0062,-0.1105,
18.1720,0.6446,-0.1339,0.0276,0.0056,0.0134,-0.1386,
18.1730,0.5757,0.0229,-0.0661,0.0056,0.0134,-0.1386,
18.2300,0.5757,0.0229,-0.0661,0.0056,0.0134,-0.1386,
18.2320,0.5757,0.0229,-0.0661,0.0056,0.0134,-0.1386,
18.2340,0.5757,0.0229,-0.0661,0.0056,0.0134,-0.1386,
18.2360,0.5757,0.0229,-0.0661,-0.0014,0.0247,-0.1695,
18.2370,0.6087,-0.0845,0.0649,-0.0014,0.0247,-0.1695,
18.2900,0.6087,-0.0845,0.0649,-0.0014,0.0247,-0.1695,
18.2920,0.6087,-0.0845,0.0649,-0.0014,0.0247,-0.1695,
18.2930,0.6087,-0.0845,0.0649,-0.0014,0.0247,-0.1695,
18.2940,0.6087,-0.0845,0.0649,0.0174,0.0227,-0.1964,
18.2960,0.4410,0.1197,-0.0384,0.0174,0.0227,-0.1964,
18.3480,0.4410,0.1197,-0.0384,0.0174,0.0227,-0.1964,
18.3490,0.4410,0.1197,-0.0384,0.0174,0.0227,-0.1964,
18.3510,0.4410,0.1197,-0.0384,0.0174,0.0227,-0.1964,
18.3520,0.4410,0.1197,-0.0384,0.0060,-0.0090,-0.2037,
18.3530,0.3545,-0.0076,0.0689,0.0060,-0.0090,-0.2037,
18.4060,-0.1679,0.4455,-0.2216,0.0060,-0.0090,-0.2037,
18.4090,-0.1679,0.4455,-0.2216,0.0060,-0.0090,-0.2037,
18.4100,-0.1679,0.4455,-0.2216,0.0060,-0.0090,-0.2037,
18.4110,-0.1679,0.4455,-0.2216,0.0060,-0.0090,-0.2037,
18.4120,-0.1679,0.4455,-0.2216,0.0410,-0.0384,-0.1866,
18.4640,-0.1679,0.4455,-0.2216,0.0410,-0.0384,-0.1866,
18.4650,-0.1679,0.4455,-0.2216,0.0410,-0.0384,-0.1866,
18.4660,-0.1679,0.4455,-0.2216,0.0410,-0.0384,-0.1866,
18.4670,-0.1679,0.4455,-0.2216,0.0056,-0.1349,-0.1166,
18.4670,-0.4697,-0.1722,-0.1028,0.0056,-0.1349,-0.1166,
18.5240,-0.4697,-0.1722,-0.1028,0.0056,-0.1349,-0.1166,
18.5260,-0.4697,-0.1722,-0.1028,0.0056,-0.1349,-0.1166,
18.5270,-0.4697,-0.1722,-0.1028,0.0056,-0.1349,-0.1166,
18.5280,-0.4697,-0.1722,-0.1028,0.0670,-0.1389,-0.0958,
18.5300,-0.3652,-0.2387,0.1645,0.0670,-0.1389,-0.0958,
18.5820,-0.3652,-0.2387,0.1645,0.0670,-0.1389,-0.0958,
18.5850,-0.3652,-0.2387,0.1645,0.0670,-0.1389,-0.0958,
18.5860,-0.3652,-0.2387,0.1645,0.0670,-0.1389,-0.0958,
18.5870,-0.3652,-0.2387,0.1645,0.1513,-0.1426,-0.0722,
18.5890,-0.3895,0.4573,-0.3012,0.1513,-0.1426,-0.0722,
18.6410,-0.3895,0.4573,-0.3012,0.1513,-0.1426,-0.0722,
18.6430,-0.3895,0.4573,-0.3012,0.1513,-0.1426,-0.0722,
18.6440,-0.3895,0.4573,-0.3012,0.1513,-0.1426,-0.0722,
18.6450,-0.3895,0.4573,-0.3012,0.0662,-0.0758,-0.1239,
18.6470,-0.3219,0.0986,0.0136,0.0662,-0.0758,-0.1239,
18.6990,-0.3219,0.0986,0.0136,0.0662,-0.0758,-0.1239,
18.7020,-0.3219,0.0986,0.0136,0.0662,-0.0758,-0.1239,
18.7030,-0.3219,0.0986,0.0136,0.0662,-0.0758,-0.1239,
18.7040,-0.3219,0.0986,0.0136,0.0618,-0.0021,-0.1573,
18.7050,-0.6704,0.1001,-0.0942,0.0618,-0.0021,-0.1573,
18.7580,-0.6704,0.1001,-0.0942,0.0618,-0.0021,-0.1573,
18.7600,-0.6704,0.1001,-0.0942,0.0618,-0.0021,-0.1573,
18.7610,-0.6704,0.1001,-0.0942,0.0618,-0.0021,-0.1573,
18.7630,-0.6704,0.1001,-0.0942,-0.0071,-0.0013,-0.1614,
18.7640,-0.7474,0.0217,0.1935,-0.0071,-0.0013,-0.1614,
18.8160,-0.7474,0.0217,0.1935,-0.0071,-0.0013,-0.1614,
18.8180,-0.7474,0.0217,0.1935,-0.0071,-0.0013,-0.1614,
18.8200,-0.7474,0.0217,0.1935,-0.0071,-0.0013,-0.1614,
18.8210,-0.7474,0.0217,0.1935,-0.0356,-0.0286,-0.1341,
18.8220,-0.6706,-0.0397,0.1720,-0.0356,-0.0286,-0.1341,
18.8750,-0.6706,-0.0397,0.1720,-0.0356,-0.0286,-0.1341,
18.8770,-0.6706,-0.0397,0.1720,-0.0356,-0.0286,-0.1341,
18.8780,-0.6706,-0.0397,0.1720,-0.0356,-0.0286,-0.1341,
18.8790,-0.4873,-0.0349,0.1405,-0.0356,-0.0286,-0.1341,
18.8810,-0.4873,-0.0349,0.1405,-0.0396,-0.0416,-0.1031,
18.9330,-0.4873,-0.0349,0.1405,-0.0396,-0.0416,-0.1031,
18.9360,-0.4873,-0.0349,0.1405,-0.0396,-0.0416,-0.1031,
18.9370,-0.4873,-0.0349,0.1405,-0.0396,-0.0416,-0.1031,
18.9380,-0.4873,-0.0349,0.1405,-0.0307,-0.0376,-0.0864,
18.9390,-0.5467,-0.0043,0.0692,-0.0307,-0.0376,-0.0864,
18.9920,-0.5467,-0.0043,0.0692,-0.0307,-0.0376,-0.0864,
18.9940,-0.5467,-0.0043,0.0692,-0.0307,-0.0376,-0.0864,
18.9950,-0.5467,-0.0043,0.0692,-0.0307,-0.0376,-0.0864,
18.9970,-0.5467,-0.0043,0.0692,-0.0466,-0.0294,-0.0706,
18.9980,-0.4506,-0.0210,0.0852,-0.0466,-0.0294,-0.0706,
19.0510,-0.4506,-0.0210,0.0852,-0.0466,-0.0294,-0.0706,
19.0530,-0.4506,-0.0210,0.0852,-0.0466,-0.0294,-0.0706,
19.0550,-0.4506,-0.0210,0.0852,-0.0466,-0.0294,-0.0706,
19.0560,-0.4506,-0.0210,0.0852,-0.0417,-0.0306,-0.0412,
19.0570,-0.4777,0.0089,0.0648,-0.0417,-0.0306,-0.0412,
19.1090,-0.4777,0.0089,0.0648,-0.0417,-0.0306,-0.0412,
19.1110,-0.4777,0.0089,0.0648,-0.0417,-0.0306,-0.0412,
19.1120,-0.4777,0.0089,0.0648,-0.0417,-0.0306,-0.0412,
19.1130,-0.3710,-0.0904,0.0621,-0.0417,-0.0306,-0.0412,
19.1150,-0.3710,-0.0904,0.0621,-0.0396,-0.0445,-0.0005,
19.1680,-0.3710,-0.0904,0.0621,-0.0396,-0.0445,-0.0005,
19.1700,-0.3710,-0.0904,0.0621,-0.0396,-0.0445,-0.0005,
19.1720,-0.3710,-0.0904,0.0621,-0.0396,-0.0445,-0.0005,
19.1730,-0.3710,-0.0904,0.0621,-0.0254,-0.0376,0.0309,
19.1740,-0.2932,-0.0382,0.0454,-0.0254,-0.0376,0.0309,
19.2260,-0.2932,-0.0382,0.0454,-0.0254,-0.0376,0.0309,
19.2290,-0.2932,-0.0382,0.0454,-0.0254,-0.0376,0.0309,
19.2300,-0.2932,-0.0382,0.0454,-0.0254,-0.0376,0.0309,
19.2310,-0.2927,-0.0822,0.0445,-0.0254,-0.0376,0.0309,
19.2330,-0.2927,-0.0822,0.0445,-0.0119,-0.0343,0.0557,
19.2850,-0.2927,-0.0822,0.0445,-0.0119,-0.0343,0.0557,
19.2870,-0.2927,-0.0822,0.0445,-0.0119,-0.0343,0.0557,
19.2890,-0.2927,-0.0822,0.0445,-0.0119,-0.0343,0.0557,
19.2900,-0.2947,-0.0523,0.0164,-0.0119,-0.0343,0.0557,
19.2920,-0.2947,-0.0523,0.0164,0.0109,-0.0416,0.0826,
19.3440,-0.2947,-0.0523,0.0164,0.0109,-0.0416,0.0826,
19.3460,-0.2947,-0.0523,0.0164,0.0109,-0.0416,0.0826,
19.3470,-0.2947,-0.0523,0.0164,0.0109,-0.0416,0.0826,
19.3480,-0.2947,-0.0523,0.0164,0.0263,-0.0510,0.1123,
19.3500,-0.2526,-0.0127,-0.0285,0.0263,-0.0510,0.1123,
19.4020,-0.2526,-0.0127,-0.0285,0.0263,-0.0510,0.1123,
19.4050,-0.2526,-0.0127,-0.0285,0.0263,-0.0510,0.1123,
19.4060,-0.2526,-0.0127,-0.0285,0.0263,-0.0510,0.1123,
19.4080,-0.2526,-0.0127,-0.0285,0.0279,-0.0498,0.1318,
19.4090,-0.1527,-0.0077,0.0092,0.0279,-0.0498,0.1318,
19.4610,-0.1527,-0.0077,0.0092,0.0279,-0.0498,0.1318,
19.4640,-0.1527,-0.0077,0.0092,0.0279,-0.0498,0.1318,
19.4670,-0.1527,-0.0077,0.0092,0.0279,-0.0498,0.1318,
19.4680,-0.1527,-0.0077,0.0092,0.0271,-0.0323,0.1392,
19.4690,-0.1396,-0.0477,0.0451,0.0271,-0.0323,0.1392,
19.5180,-0.1396,-0.0477,0.0451,0.0271,-0.0323,0.1392,
19.5200,-0.1396,-0.0477,0.0451,0.0271,-0.0323,0.1392,
19.5210,-0.1396,-0.0477,0.0451,0.0271,-0.0323,0.1392,
19.5220,-0.1396,-0.0477,0.0451,0.0341,0.0024,0.1522,
19.5230,-0.1978,-0.0045,-0.0566,0.0341,0.0024,0.1522,
19.5780,-0.1978,-0.0045,-0.0566,0.0341,0.0024,0.1522,
19.5800,-0.1978,-0.0045,-0.0566,0.0341,0.0024,0.1522,
19.5810,-0.1978,-0.0045,-0.0566,0.0341,0.0024,0.1522,
19.5820,-0.1978,-0.0045,-0.0566,0.0442,0.0341,0.1819,
19.5840,0.1527,0.5270,-0.2020,0.0442,0.0341,0.1819,
19.6370,0.1527,0.5270,-0.2020,0.0442,0.0341,0.1819,
19.6390,0.1527,0.5270,-0.2020,0.0442,0.0341,0.1819,
19.6400,0.1527,0.5270,-0.2020,0.0442,0.0341,0.1819,
19.6410,0.1527,0.5270,-0.2020,0.0052,0.0972,0.1978,
19.6420,0.6694,0.2361,-0.3789,0.0052,0.0972,0.1978,
19.6950,0.6694,0.2361,-0.3789,0.0052,0.0972,0.1978,
19.6980,0.6694,0.2361,-0.3789,0.0052,0.0972,0.1978,
19.6990,0.6694,0.2361,-0.3789,0.0052,0.0972,0.1978,
19.7000,0.6694,0.2361,-0.3789,-0.0612,0.1469,0.1624,
19.7010,0.5046,-0.2722,0.2794,-0.0612,0.1469,0.1624,
19.7540,0.5046,-0.2722,0.2794,-0.0612,0.1469,0.1624,
19.7560,0.5046,-0.2722,0.2794,-0.0612,0.1469,0.1624,
19.7570,0.5046,-0.2722,0.2794,-0.0612,0.1469,0.1624,
19.7580,0.5046,-0.2722,0.2794,0.0226,0.2194,0.1184,
19.7600,0.7979,0.3073,-0.1963,0.0226,0.2194,0.1184,
19.8120,0.7979,0.3073,-0.1963,0.0226,0.2194,0.1184,
19.8150,0.7979,0.3073,-0.1963,0.0226,0.2194,0.1184,
19.8160,0.7979,0.3073,-0.1963,0.0226,0.2194,0.1184,
19.8170,0.7979,0.3073,-0.1963,-0.0022,0.1950,0.0952,
19.8190,0.5337,0.0948,-0.0135,-0.0022,0.1950,0.0952,
19.8710,0.5337,0.0948,-0.0135,-0.0022,0.1950,0.0952,
19.8740,0.5337,0.0948,-0.0135,-0.0022,0.1950,0.0952,
19.8750,0.5337,0.0948,-0.0135,-0.0022,0.1950,0.0952,
19.8770,0.4990,-0.0094,-0.0907,-0.0022,0.1950,0.0952,
19.8790,0.4990,-0.0094,-0.0907,0.0092,0.1372,0.0988,
19.9290,0.4990,-0.0094,-0.0907,0.0092,0.1372,0.0988,
19.9310,0.4990,-0.0094,-0.0907,0.0092,0.1372,0.0988,
19.9320,0.4990,-0.0094,-0.0907,0.0092,0.1372,0.0988,
19.9330,0.7983,-0.0071,0.0121,0.0092,0.1372,0.0988,
19.9350,0.7983,-0.0071,0.0121,0.0125,0.0744,0.1294,
19.9880,0.7983,-0.0071,0.0121,0.0125,0.0744,0.1294,
19.9900,0.7983,-0.0071,0.0121,0.0125,0.0744,0.1294,
19.9930,0.7983,-0.0071,0.0121,0.0125,0.0744,0.1294,
19.9950,0.7983,-0.0071,0.0121,0.0011,0.0728,0.1102,
19.9960,0.7717,-0.0492,0.0828,0.0011,0.0728,0.1102,
20.0460,0.7717,-0.0492,0.0828,0.0011,0.0728,0.1102,
20.0480,0.7717,-0.0492,0.0828,0.0011,0.0728,0.1102,
20.0490,0.7717,-0.0492,0.0828,0.0011,0.0728,0.1102,
20.0500,0.7717,-0.0492,0.0828,-0.0030,0.0805,0.0846,
20.0510,0.7586,0.0176,0.0848,-0.0030,0.0805,0.0846,
20.1050,0.7586,0.0176,0.0848,-0.0030,0.0805,0.0846,
20.1070,0.7586,0.0176,0.0848,-0.0030,0.0805,0.0846,
20.1080,0.7586,0.0176,0.0848,-0.0030,0.0805,0.0846,
20.1100,0.6979,-0.0300,0.0522,-0.0030,0.0805,0.0846,
20.1110,0.6979,-0.0300,0.0522,-0.0070,0.0875,0.0610,
20.1640,0.6979,-0.0300,0.0522,-0.0070,0.0875,0.0610,
20.1660,0.6979,-0.0300,0.0522,-0.0070,0.0875,0.0610,
20.1670,0.6979,-0.0300,0.0522,-0.0070,0.0875,0.0610,
20.1690,0.6979,-0.0300,0.0522,-0.0095,0.0781,0.0374,
20.1700,0.5428,0.0465,0.0683,-0.0095,0.0781,0.0374,
20.2220,0.5428,0.0465,0.0683,-0.0095,0.0781,0.0374,
20.2230,0.5428,0.0465,0.0683,-0.0095,0.0781,0.0374,
20.2250,0.5428,0.0465,0.0683,-0.0095,0.0781,0.0374,
20.2260,0.5546,-0.0409,0.0316,-0.0095,0.0781,0.0374,
20.2280,0.5546,-0.0409,0.0316,-0.0164,0.0390,0.0203,
20.2810,0.5546,-0.0409,0.0316,-0.0164,0.0390,0.0203,
20.2830,0.5546,-0.0409,0.0316,-0.0164,0.0390,0.0203,
20.2850,0.5546,-0.0409,0.0316,-0.0164,0.0390,0.0203,
20.2860,0.5546,-0.0409,0.0316,-0.0201,0.0195,-0.0078,
20.2870,0.5984,-0.0015,0.0740,-0.0201,0.0195,-0.0078,
20.3390,0.5984,-0.0015,0.0740,-0.0201,0.0195,-0.0078,
20.3410,0.5984,-0.0015,0.0740,-0.0201,0.0195,-0.0078,
20.3430,0.5984,-0.0015,0.0740,-0.0201,0.0195,-0.0078,
20.3440,0.5984,-0.0015,0.0740,-0.0242,0.0085,-0.0531,
20.3450,0.4597,0.0079,0.0855,-0.0242,0.0085,-0.0531,
20.3980,0.4597,0.0079,0.0855,-0.0242,0.0085,-0.0531,
20.4000,0.4597,0.0079,0.0855,-0.0242,0.0085,-0.0531,
20.4020,0.4597,0.0079,0.0855,-0.0242,0.0085,-0.0531,
20.4030,0.4597,0.0079,0.0855,-0.0327,-0.0107,-0.0864,
20.4050,0.4049,0.0059,0.1033,-0.0327,-0.0107,-0.0864,
20.4570,0.4049,0.0059,0.1033,-0.0327,-0.0107,-0.0864,
20.4590,0.4049,0.0059,0.1033,-0.0327,-0.0107,-0.0864,
20.4600,0.4049,0.0059,0.1033,-0.0327,-0.0107,-0.0864,
20.4610,0.4049,0.0059,0.1033,-0.0303,-0.0266,-0.1044,
20.4620,0.3727,-0.0396,0.0877,-0.0303,-0.0266,-0.1044,
20.5150,0.3727,-0.0396,0.0877,-0.0303,-0.0266,-0.1044,
20.5180,0.3727,-0.0396,0.0877,-0.0303,-0.0266,-0.1044,
20.5190,0.3727,-0.0396,0.0877,-0.0303,-0.0266,-0.1044,
20.5200,0.3727,-0.0396,0.0877,-0.0144,-0.0298,-0.1149,
20.5210,0.4134,-0.0575,0.0380,-0.0144,-0.0298,-0.1149,
20.5740,0.4134,-0.0575,0.0380,-0.0144,-0.0298,-0.1149,
20.5760,0.4134,-0.0575,0.0380,-0.0144,-0.0298,-0.1149,
20.5770,0.4134,-0.0575,0.0380,-0.0144,-0.0298,-0.1149,
20.5790,0.4134,-0.0575,0.0380,0.0064,-0.0266,-0.1320,
20.5800,0.3998,-0.0287,-0.0405,0.0064,-0.0266,-0.1320,
20.6320,0.3998,-0.0287,-0.0405,0.0064,-0.0266,-0.1320,
20.6340,0.3998,-0.0287,-0.0405,0.0064,-0.0266,-0.1320,
20.6360,0.3998,-0.0287,-0.0405,0.0064,-0.0266,-0.1320,
20.6370,0.3998,-0.0287,-0.0405,0.0190,-0.0009,-0.1565,
20.6380,0.3999,-0.0692,0.0020,0.0190,-0.0009,-0.1565,
20.6910,0.3999,-0.0692,0.0020,0.0190,-0.0009,-0.1565,
20.6930,0.3999,-0.0692,0.0020,0.0190,-0.0009,-0.1565,
20.6950,0.3999,-0.0692,0.0020,0.0190,-0.0009,-0.1565,
20.6960,0.0124,0.1751,-0.0868,0.0190,-0.0009,-0.1565,
20.6980,0.0124,0.1751,-0.0868,0.0385,0.0223,-0.1830,
20.7490,0.0124,0.1751,-0.0868,0.0385,0.0223,-0.1830,
20.7510,0.0124,0.1751,-0.0868,0.0385,0.0223,-0.1830,
20.7530,0.0124,0.1751,-0.0868,0.0385,0.0223,-0.1830,
20.7540,-0.4714,0.2713,-0.2586,0.0385,0.0223,-0.1830,
20.7560,-0.4714,0.2713,-0.2586,0.0560,0.0085,-0.1883,
20.8070,-0.4714,0.2713,-0.2586,0.0560,0.0085,-0.1883,
20.8120,-0.4714,0.2713,-0.2586,0.0560,0.0085,-0.1883,
20.8130,-0.4714,0.2713,-0.2586,0.0560,0.0085,-0.1883,
20.8150,-0.4714,0.2713,-0.2586,0.0397,-0.0367,-0.1744,
20.8160,-0.5226,-0.3270,0.1349,0.0397,-0.0367,-0.1744,
20.8660,-0.5226,-0.3270,0.1349,0.0397,-0.0367,-0.1744,
20.8700,-0.5226,-0.3270,0.1349,0.0397,-0.0367,-0.1744,
20.8720,-0.5226,-0.3270,0.1349,0.0397,-0.0367,-0.1744,
20.8730,-0.5226,-0.3270,0.1349,0.1025,-0.0909,-0.1312,
20.8750,-0.6768,0.4329,-0.2113,0.1025,-0.0909,-0.1312,
20.9250,-0.6768,0.4329,-0.2113,0.1025,-0.0909,-0.1312,
20.9260,-0.6768,0.4329,-0.2113,0.1025,-0.0909,-0.1312,
20.9260,-0.6768,0.4329,-0.2113,0.1025,-0.0909,-0.1312,
20.9270,-0.6768,0.4329,-0.2113,0.0410,-0.0893,-0.1316,
20.9270,-0.5960,-0.0340,0.0763,0.0410,-0.0893,-0.1316,
20.9840,-0.5960,-0.0340,0.0763,0.0410,-0.0893,-0.1316,
20.9850,-0.5960,-0.0340,0.0763,0.0410,-0.0893,-0.1316,
20.9850,-0.5960,-0.0340,0.0763,0.0410,-0.0893,-0.1316,
20.9850,-0.5960,-0.0340,0.0763,0.0740,-0.0465,-0.1475,
20.9860,-0.6413,0.1541,-0.1703,0.0740,-0.0465,-0.1475,
21.0430,-0.6413,0.1541,-0.1703,0.0740,-0.0465,-0.1475,
21.0440,-0.6413,0.1541,-0.1703,0.0740,-0.0465,-0.1475,
21.0450,-0.6413,0.1541,-0.1703,0.0740,-0.0465,-0.1475,
21.0450,-0.6413,0.1541,-0.1703,0.0369,-0.0327,-0.1540,
21.0460,-0.8253,0.0033,0.0461,0.0369,-0.0327,-0.1540,
21.1010,-0.8253,0.0033,0.0461,0.0369,-0.0327,-0.1540,
21.1030,-0.8253,0.0033,0.0461,0.0369,-0.0327,-0.1540,
21.1050,-0.8253,0.0033,0.0461,0.0369,-0.0327,-0.1540,
21.1060,-0.8253,0.0033,0.0461,0.0011,-0.0323,-0.1496,
21.1070,-0.8363,-0.0235,0.1439,0.0011,-0.0323,-0.1496,
21.1600,-0.8363,-0.0235,0.1439,0.0011,-0.0323,-0.1496,
21.1620,-0.8363,-0.0235,0.1439,0.0011,-0.0323,-0.1496,
21.1640,-0.8363,-0.0235,0.1439,0.0011,-0.0323,-0.1496,
21.1650,-0.8363,-0.0235,0.1439,-0.0189,-0.0514,-0.1174,
21.1670,-0.7230,-0.1066,0.0771,-0.0189,-0.0514,-0.1174,
21.2180,-0.7230,-0.1066,0.0771,-0.0189,-0.0514,-0.1174,
21.2200,-0.7230,-0.1066,0.0771,-0.0189,-0.0514,-0.1174,
21.2210,-0.7230,-0.1066,0.0771,-0.0189,-0.0514,-0.1174,
21.2220,-0.7230,-0.1066,0.0771,-0.0103,-0.0526,-0.0860,
21.2240,-0.7201,-0.0039,-0.0304,-0.0103,-0.0526,-0.0860,
21.2760,-0.7201,-0.0039,-0.0304,-0.0103,-0.0526,-0.0860,
21.2790,-0.7201,-0.0039,-0.0304,-0.0103,-0.0526,-0.0860,
21.2800,-0.7201,-0.0039,-0.0304,-0.0103,-0.0526,-0.0860,
21.2810,-0.7201,-0.0039,-0.0304,-0.0189,-0.0506,-0.0571,
21.2820,-0.6148,-0.0788,-0.0310,-0.0189,-0.0506,-0.0571,
21.3350,-0.6148,-0.0788,-0.0310,-0.0189,-0.0506,-0.0571,
21.3370,-0.6148,-0.0788,-0.0310,-0.0189,-0.0506,-0.0571,
21.3390,-0.6148,-0.0788,-0.0310,-0.0189,-0.0506,-0.0571,
21.3400,-0.6148,-0.0788,-0.0310,-0.0225,-0.0282,-0.0302,
21.3410,-0.4740,0.0430,-0.0626,-0.0225,-0.0282,-0.0302,
21.3940,-0.4740,0.0430,-0.0626,-0.0225,-0.0282,-0.0302,
21.3960,-0.4740,0.0430,-0.0626,-0.0225,-0.0282,-0.0302,
21.3980,-0.4740,0.0430,-0.0626,-0.0225,-0.0282,-0.0302,
21.3990,-0.4740,0.0430,-0.0626,-0.0340,-0.0135,-0.0025,
21.4000,-0.5332,-0.1031,-0.0282,-0.0340,-0.0135,-0.0025,
21.4520,-0.5332,-0.1031,-0.0282,-0.0340,-0.0135,-0.0025,
21.4540,-0.5332,-0.1031,-0.0282,-0.0340,-0.0135,-0.0025,
21.4560,-0.5332,-0.1031,-0.0282,-0.0340,-0.0135,-0.0025,
21.4570,-0.5332,-0.1031,-0.0282,-0.0311,0.0040,0.0255,
21.4580,-0.4268,0.0008,-0.0482,-0.0311,0.0040,0.0255,
21.5110,-0.4268,0.0008,-0.0482,-0.0311,0.0040,0.0255,
21.5140,-0.4268,0.0008,-0.0482,-0.0311,0.0040,0.0255,
21.5150,-0.4268,0.0008,-0.0482,-0.0311,0.0040,0.0255,
21.5160,-0.4268,0.0008,-0.0482,-0.0368,-0.0013,0.0589,
21.5180,-0.4556,-0.1075,-0.0153,-0.0368,-0.0013,0.0589,
21.5690,-0.4556,-0.1075,-0.0153,-0.0368,-0.0013,0.0589,
21.5720,-0.4556,-0.1075,-0.0153,-0.0368,-0.0013,0.0589,
21.5730,-0.4556,-0.1075,-0.0153,-0.0368,-0.0013,0.0589,
21.5750,-0.4556,-0.1075,-0.0153,-0.0352,-0.0038,0.0891,
21.5760,-0.3402,-0.0443,0.0181,-0.0352,-0.0038,0.0891,
21.6270,-0.3402,-0.0443,0.0181,-0.0352,-0.0038,0.0891,
21.6290,-0.3402,-0.0443,0.0181,-0.0352,-0.0038,0.0891,
21.6300,-0.3402,-0.0443,0.0181,-0.0352,-0.0038,0.0891,
21.6320,-0.3402,-0.0443,0.0181,-0.0380,-0.0143,0.1172,
21.6330,-0.2687,-0.0738,0.0804,-0.0380,-0.0143,0.1172,
21.6870,-0.2687,-0.0738,0.0804,-0.0380,-0.0143,0.1172,
21.6890,-0.2687,-0.0738,0.0804,-0.0380,-0.0143,0.1172,
21.6900,-0.2687,-0.0738,0.0804,-0.0380,-0.0143,0.1172,
21.6920,-0.2687,-0.0738,0.0804,-0.0282,-0.0506,0.1449,
21.6930,-0.1777,0.0176,0.0289,-0.0282,-0.0506,0.1449,
21.7450,0.2633,0.2177,0.0541,-0.0282,-0.0506,0.1449,
21.7480,0.2633,0.2177,0.0541,-0.0282,-0.0506,0.1449,
21.7500,0.2633,0.2177,0.0541,-0.0282,-0.0506,0.1449,
21.7510,0.2633,0.2177,0.0541,-0.0282,-0.0506,0.1449,
21.7520,0.2633,0.2177,0.0541,-0.0233,-0.0400,0.1526,
21.8040,0.2633,0.2177,0.0541,-0.0233,-0.0400,0.1526,
21.8060,0.2633,0.2177,0.0541,-0.0233,-0.0400,0.1526,
21.8070,0.2633,0.2177,0.0541,-0.0233,-0.0400,0.1526,
21.8090,0.2633,0.2177,0.0541,0.0003,0.0317,0.1457,
21.8100,0.7724,0.5234,-0.3720,0.0003,0.0317,0.1457,
21.8620,0.7724,0.5234,-0.3720,0.0003,0.0317,0.1457,
21.8640,0.7724,0.5234,-0.3720,0.0003,0.0317,0.1457,
21.8650,0.7724,0.5234,-0.3720,0.0003,0.0317,0.1457,
21.8670,0.7724,0.5234,-0.3720,-0.0449,0.0630,0.0927,
21.8680,0.4531,-0.1839,0.0429,-0.0449,0.0630,0.0927,
21.9210,0.4531,-0.1839,0.0429,-0.0449,0.0630,0.0927,
21.9230,0.4531,-0.1839,0.0429,-0.0449,0.0630,0.0927,
21.9250,0.4531,-0.1839,0.0429,-0.0449,0.0630,0.0927,
21.9260,0.4531,-0.1839,0.0429,-0.0417,0.1469,0.0459,
21.9270,0.4596,0.3021,0.0387,-0.0417,0.1469,0.0459,
21.9790,0.4596,0.3021,0.0387,-0.0417,0.1469,0.0459,
21.9820,0.4596,0.3021,0.0387,-0.0417,0.1469,0.0459,
21.9830,0.4596,0.3021,0.0387,-0.0417,0.1469,0.0459,
21.9840,0.4596,0.3021,0.0387,-0.0824,0.1465,0.0329,
21.9850,0.4602,-0.1435,0.1769,-0.0824,0.1465,0.0329,
22.0380,0.4602,-0.1435,0.1769,-0.0824,0.1465,0.0329,
22.0400,0.4602,-0.1435,0.1769,-0.0824,0.1465,0.0329,
22.0410,0.4602,-0.1435,0.1769,-0.0824,0.1465,0.0329,
22.0420,0.4602,-0.1435,0.1769,-0.0144,0.1270,0.0129,
22.0440,0.5982,0.0956,-0.0293,-0.0144,0.1270,0.0129,
22.0970,0.5982,0.0956,-0.0293,-0.0144,0.1270,0.0129,
22.0990,0.5982,0.0956,-0.0293,-0.0144,0.1270,0.0129,
22.1000,0.5982,0.0956,-0.0293,-0.0144,0.1270,0.0129,
22.1010,0.5324,0.0787,0.0008,-0.0144,0.1270,0.0129,
22.1030,0.5324,0.0787,0.0008,-0.0168,0.1253,0.0003,
22.1550,0.5324,0.0787,0.0008,-0.0168,0.1253,0.0003,
22.1580,0.5324,0.0787,0.0008,-0.0168,0.1253,0.0003,
22.1590,0.5324,0.0787,0.0008,-0.0168,0.1253,0.0003,
22.1600,0.5324,0.0787,0.0008,-0.0319,0.0956,-0.0188,
22.1610,0.5527,0.0480,0.0320,-0.0319,0.0956,-0.0188,
22.2140,0.5527,0.0480,0.0320,-0.0319,0.0956,-0.0188,
22.2160,0.5527,0.0480,0.0320,-0.0319,0.0956,-0.0188,
22.2170,0.5527,0.0480,0.0320,-0.0319,0.0956,-0.0188,
22.2180,0.5527,0.0480,0.0320,-0.0364,0.0618,-0.0355,
22.2190,0.3945,0.0459,0.0090,-0.0364,0.0618,-0.0355,
22.2720,0.3945,0.0459,0.0090,-0.0364,0.0618,-0.0355,
22.2750,0.3945,0.0459,0.0090,-0.0364,0.0618,-0.0355,
22.2760,0.3945,0.0459,0.0090,-0.0364,0.0618,-0.0355,
22.2770,0.3945,0.0459,0.0090,-0.0278,0.0072,-0.0465,
22.2780,0.2958,0.0223,-0.0291,-0.0278,0.0072,-0.0465,
22.3310,0.2958,0.0223,-0.0291,-0.0278,0.0072,-0.0465,
22.3330,0.2958,0.0223,-0.0291,-0.0278,0.0072,-0.0465,
22.3350,0.2958,0.0223,-0.0291,-0.0278,0.0072,-0.0465,
22.3360,0.2958,0.0223,-0.0291,-0.0233,-0.0233,-0.0380,
22.3370,0.1379,0.0350,0.0261,-0.0233,-0.0233,-0.0380,
22.3890,0.1379,0.0350,0.0261,-0.0233,-0.0233,-0.0380,
22.3910,0.1379,0.0350,0.0261,-0.0233,-0.0233,-0.0380,
22.3920,0.1379,0.0350,0.0261,-0.0233,-0.0233,-0.0380,
22.3940,0.1379,0.0350,0.0261,-0.0242,-0.0689,-0.0258,
22.3950,0.1709,0.0139,0.0875,-0.0242,-0.0689,-0.0258,
22.4480,0.1709,0.0139,0.0875,-0.0242,-0.0689,-0.0258,
22.4490,0.1709,0.0139,0.0875,-0.0242,-0.0689,-0.0258,
22.4510,0.1709,0.0139,0.0875,-0.0242,-0.0689,-0.0258,
22.4520,0.1709,0.0139,0.0875,-0.0225,-0.0701,-0.0188,
22.4530,0.1761,0.0170,0.0380,-0.0225,-0.0701,-0.0188,
22.5070,0.1761,0.0170,0.0380,-0.0225,-0.0701,-0.0188,
22.5090,0.1761,0.0170,0.0380,-0.0225,-0.0701,-0.0188,
22.5100,0.1761,0.0170,0.0380,-0.0225,-0.0701,-0.0188,
22.5110,0.1761,0.0170,0.0380,-0.0095,-0.0555,-0.0139,
22.5120,0.1171,0.0458,-0.0071,-0.0095,-0.0555,-0.0139,
22.5650,0.1171,0.0458,-0.0071,-0.0095,-0.0555,-0.0139,
22.5670,0.1171,0.0458,-0.0071,-0.0095,-0.0555,-0.0139,
22.5690,0.1171,0.0458,-0.0071,-0.0095,-0.0555,-0.0139,
22.5700,0.1171,0.0458,-0.0071,-0.0042,-0.0420,-0.0099,
22.5710,0.0661,0.0104,-0.0092,-0.0042,-0.0420,-0.0099,
22.6240,0.0661,0.0104,-0.0092,-0.0042,-0.0420,-0.0099,
22.6260,0.0661,0.0104,-0.0092,-0.0042,-0.0420,-0.0099,
22.6270,0.0661,0.0104,-0.0092,-0.0042,-0.0420,-0.0099,
22.6280,-0.0039,0.0342,0.0503,-0.0042,-0.0420,-0.0099,
22.6300,-0.0039,0.0342,0.0503,-0.0026,-0.0384,-0.0038,
22.6820,-0.0039,0.0342,0.0503,-0.0026,-0.0384,-0.0038,
22.6850,-0.0039,0.0342,0.0503,-0.0026,-0.0384,-0.0038,
22.6860,-0.0039,0.0342,0.0503,-0.0026,-0.0384,-0.0038,
22.6870,-0.0039,0.0342,0.0503,-0.0022,-0.0347,-0.0038,
22.6880,-0.0003,-0.0043,0.0660,-0.0022,-0.0347,-0.0038,
22.7410,-0.0003,-0.0043,0.0660,-0.0022,-0.0347,-0.0038,
22.7430,-0.0003,-0.0043,0.0660,-0.0022,-0.0347,-0.0038,
22.7450,-0.0003,-0.0043,0.0660,-0.0022,-0.0347,-0.0038,
22.7460,-0.0003,-0.0043,0.0660,0.0003,-0.0237,-0.0050,
22.7470,0.0036,0.0297,0.0300,0.0003,-0.0237,-0.0050,
22.7990,0.0036,0.0297,0.0300,0.0003,-0.0237,-0.0050,
22.8010,0.0036,0.0297,0.0300,0.0003,-0.0237,-0.0050,
22.8020,0.0036,0.0297,0.0300,0.0003,-0.0237,-0.0050,
22.8030,0.0036,0.0297,0.0300,0.0039,-0.0160,-0.0083,
22.8050,0.0146,0.0179,0.0115,0.0039,-0.0160,-0.0083,
22.8580,0.0146,0.0179,0.0115,0.0039,-0.0160,-0.0083,
22.8600,0.0146,0.0179,0.0115,0.0039,-0.0160,-0.0083,
22.8610,0.0146,0.0179,0.0115,0.0039,-0.0160,-0.0083,
22.8630,0.0146,0.0179,0.0115,0.0088,0.0044,-0.0152,
22.8640,-0.0384,0.0178,0.0000,0.0088,0.0044,-0.0152,
22.9170,-0.0384,0.0178,0.0000,0.0088,0.0044,-0.0152,
22.9190,-0.0384,0.0178,0.0000,0.0088,0.0044,-0.0152,
22.9210,-0.0384,0.0178,0.0000,0.0088,0.0044,-0.0152,
22.9220,0.0082,0.0336,0.0586,0.0088,0.0044,-0.0152,
22.9230,0.0082,0.0336,0.0586,0.0043,-0.0070,-0.0087,
22.9750,0.0082,0.0336,0.0586,0.0043,-0.0070,-0.0087,
22.9770,0.0082,0.0336,0.0586,0.0043,-0.0070,-0.0087,
22.9780,0.0082,0.0336,0.0586,0.0043,-0.0070,-0.0087,
22.9800,0.0082,0.0336,0.0586,0.0023,-0.0070,-0.0054,
22.9810,0.0225,0.0118,0.0330,0.0023,-0.0070,-0.0054,
23.0340,0.0225,0.0118,0.0330,0.0023,-0.0070,-0.0054,
23.0360,0.0225,0.0118,0.0330,0.0023,-0.0070,-0.0054,
23.0370,0.0225,0.0118,0.0330,0.0023,-0.0070,-0.0054,
23.0380,0.0225,0.0118,0.0330,-0.0009,0.0023,-0.0005,
23.0390,0.0435,0.0083,-0.0043,-0.0009,0.0023,-0.0005,
23.0930,0.0231,0.0189,0.0341,-0.0009,0.0023,-0.0005,
23.0960,0.0231,0.0189,0.0341,-0.0009,0.0023,-0.0005,
23.0970,0.0231,0.0189,0.0341,-0.0009,0.0023,-0.0005,
23.0980,0.0231,0.0189,0.0341,-0.0009,0.0023,-0.0005,
23.0990,0.0231,0.0189,0.0341,0.0023,0.0252,-0.0013,
23.1510,0.0231,0.0189,0.0341,0.0023,0.0252,-0.0013,
23.1530,0.0231,0.0189,0.0341,0.0023,0.0252,-0.0013,
23.1550,0.0231,0.0189,0.0341,0.0023,0.0252,-0.0013,
23.1560,0.0231,0.0189,0.0341,-0.0005,0.0292,0.0011,
23.1580,-0.0299,-0.0102,0.0358,-0.0005,0.0292,0.0011,
23.2090,-0.0299,-0.0102,0.0358,-0.0005,0.0292,0.0011,
23.2110,-0.0299,-0.0102,0.0358,-0.0005,0.0292,0.0011,
23.2130,-0.0299,-0.0102,0.0358,-0.0005,0.0292,0.0011,
23.2140,-0.0299,-0.0102,0.0358,0.0043,0.0170,0.0040,
23.2150,0.0322,0.0158,0.0235,0.0043,0.0170,0.0040,
23.2680,0.0322,0.0158,0.0235,0.0043,0.0170,0.0040,
23.2700,0.0322,0.0158,0.0235,0.0043,0.0170,0.0040,
23.2710,0.0322,0.0158,0.0235,0.0043,0.0170,0.0040,
23.2720,0.0322,0.0158,0.0235,0.0080,0.0162,0.0027,
23.2740,0.0044,0.0065,0.0152,0.0080,0.0162,0.0027,
23.3270,0.0044,0.0065,0.0152,0.0080,0.0162,0.0027,
23.3290,0.0044,0.0065,0.0152,0.0080,0.0162,0.0027,
23.3300,0.0044,0.0065,0.0152,0.0080,0.0162,0.0027,
23.3310,0.0044,0.0065,0.0152,0.0084,0.0129,0.0011,
23.3330,0.0168,0.0076,-0.0036,0.0084,0.0129,0.0011,
23.3850,0.0168,0.0076,-0.0036,0.0084,0.0129,0.0011,
23.3870,0.0168,0.0076,-0.0036,0.0084,0.0129,0.0011,
23.3880,0.0168,0.0076,-0.0036,0.0084,0.0129,0.0011,
23.3890,0.0168,0.0076,-0.0036,0.0064,0.0003,0.0019,
23.3910,0.0742,0.0127,0.0341,0.0064,0.0003,0.0019,
23.4440,0.0742,0.0127,0.0341,0.0064,0.0003,0.0019,
23.4460,0.0742,0.0127,0.0341,0.0064,0.0003,0.0019,
23.4470,0.0742,0.0127,0.0341,0.0064,0.0003,0.0019,
23.4480,0.0742,0.0127,0.0341,0.0088,0.0036,0.0036,
23.4500,0.0618,0.0194,0.0208,0.0088,0.0036,0.0036,
23.5020,0.0618,0.0194,0.0208,0.0088,0.0036,0.0036,
23.5030,0.0618,0.0194,0.0208,0.0088,0.0036,0.0036,
23.5050,0.0618,0.0194,0.0208,0.0088,0.0036,0.0036,
23.5060,0.0618,0.0194,0.0208,0.0080,0.0011,0.0003,
23.5070,0.0632,0.0070,0.0112,0.0080,0.0011,0.0003,
23.5600,0.0632,0.0070,0.0112,0.0080,0.0011,0.0003,
23.5610,0.0632,0.0070,0.0112,0.0080,0.0011,0.0003,
23.5620,0.0632,0.0070,0.0112,0.0080,0.0011,0.0003,
23.5630,0.0632,0.0070,0.0112,0.0092,0.0015,-0.0001,
23.5640,0.0590,0.0153,-0.0023,0.0092,0.0015,-0.0001,
23.6200,0.0590,0.0153,-0.0023,0.0092,0.0015,-0.0001,
23.6220,0.0590,0.0153,-0.0023,0.0092,0.0015,-0.0001,
23.6230,0.0590,0.0153,-0.0023,0.0092,0.0015,-0.0001,
23.6250,0.0374,0.0013,0.0066,0.0092,0.0015,-0.0001,
23.6260,0.0374,0.0013,0.0066,0.0080,0.0056,-0.0017,
23.6770,0.0374,0.0013,0.0066,0.0080,0.0056,-0.0017,
23.6790,0.0374,0.0013,0.0066,0.0080,0.0056,-0.0017,
23.6810,0.0374,0.0013,0.0066,0.0080,0.0056,-0.0017,
23.6820,0.0374,0.0013,0.0066,0.0064,0.0040,-0.0038,
23.6830,0.0328,0.0159,0.0029,0.0064,0.0040,-0.0038,
23.7370,0.0328,0.0159,0.0029,0.0064,0.0040,-0.0038,
23.7390,0.0328,0.0159,0.0029,0.0064,0.0040,-0.0038,
23.7400,0.0328,0.0159,0.0029,0.0064,0.0040,-0.0038,
23.7420,0.0328,0.0159,0.0029,0.0056,0.0032,-0.0046,
23.7430,0.0342,0.0033,0.0006,0.0056,0.0032,-0.0046,
23.7950,0.0342,0.0033,0.0006,0.0056,0.0032,-0.0046,
23.7970,0.0342,0.0033,0.0006,0.0056,0.0032,-0.0046,
23.7990,0.0342,0.0033,0.0006,0.0056,0.0032,-0.0046,
23.8000,0.0342,0.0033,0.0006,0.0068,0.0064,-0.0070,
23.8010,0.0194,0.0001,0.0092,0.0068,0.0064,-0.0070,
23.8540,0.0194,0.0001,0.0092,0.0068,0.0064,-0.0070,
23.8560,0.0194,0.0001,0.0092,0.0068,0.0064,-0.0070,
23.8580,0.0194,0.0001,0.0092,0.0068,0.0064,-0.0070,
23.8590,0.0194,0.0001,0.0092,0.0084,0.0093,-0.0070,
23.8600,0.0111,0.0073,-0.0034,0.0084,0.0093,-0.0070,
23.9120,0.0111,0.0073,-0.0034,0.0084,0.0093,-0.0070,
23.9150,0.0111,0.0073,-0.0034,0.0084,0.0093,-0.0070,
23.9160,0.0111,0.0073,-0.0034,0.0084,0.0093,-0.0070,
23.9180,0.0111,0.0073,-0.0034,0.0052,0.0072,-0.0074,
23.9190,0.0082,0.0306,0.0007,0.0052,0.0072,-0.0074,
23.9710,0.0082,0.0306,0.0007,0.0052,0.0072,-0.0074,
23.9730,0.0082,0.0306,0.0007,0.0052,0.0072,-0.0074,
23.9740,0.0082,0.0306,0.0007,0.0052,0.0072,-0.0074,
23.9760,0.0082,0.0306,0.0007,0.0035,0.0089,-0.0074,
23.9770,0.0375,-0.0297,0.0149,0.0035,0.0089,-0.0074,
24.0310,0.0375,-0.0297,0.0149,0.0035,0.0089,-0.0074,
24.0330,0.0375,-0.0297,0.0149,0.0035,0.0089,-0.0074,
24.0350,0.0375,-0.0297,0.0149,0.0035,0.0089,-0.0074,
24.0360,0.0375,-0.0297,0.0149,0.0096,0.0142,-0.0074,
24.0370,-0.0140,-0.0021,-0.0266,0.0096,0.0142,-0.0074,
24.0880,-0.0140,-0.0021,-0.0266,0.0096,0.0142,-0.0074,
24.0910,-0.0140,-0.0021,-0.0266,0.0096,0.0142,-0.0074,
24.0920,-0.0140,-0.0021,-0.0266,0.0096,0.0142,-0.0074,
24.0930,-0.0140,-0.0021,-0.0266,0.0072,0.0089,-0.0083,
24.0950,-0.0031,0.0160,0.0223,0.0072,0.0089,-0.0083,
24.1470,-0.0031,0.0160,0.0223,0.0072,0.0089,-0.0083,
24.1490,-0.0031,0.0160,0.0223,0.0072,0.0089,-0.0083,
24.1500,-0.0031,0.0160,0.0223,0.0072,0.0089,-0.0083,
24.1510,-0.0031,0.0160,0.0223,0.0072,0.0081,-0.0030,
24.1520,-0.0074,0.0240,-0.0130,0.0072,0.0081,-0.0030,
24.2050,-0.0074,0.0240,-0.0130,0.0072,0.0081,-0.0030,
24.2070,-0.0074,0.0240,-0.0130,0.0072,0.0081,-0.0030,
24.2080,-0.0074,0.0240,-0.0130,0.0072,0.0081,-0.0030,
24.2090,-0.0074,0.0240,-0.0130,0.0043,0.0020,0.0015,
24.2110,0.0067,0.0009,-0.0029,0.0043,0.0020,0.0015,
24.2630,0.0067,0.0009,-0.0029,0.0043,0.0020,0.0015,
24.2660,0.0067,0.0009,-0.0029,0.0043,0.0020,0.0015,
24.2670,0.0067,0.0009,-0.0029,0.0043,0.0020,0.0015,
24.2680,0.0067,0.0009,-0.0029,-0.0018,0.0056,0.0048,
24.2700,0.0238,0.0104,0.0209,-0.0018,0.0056,0.0048,
24.3220,0.0238,0.0104,0.0209,-0.0018,0.0056,0.0048,
24.3240,0.0238,0.0104,0.0209,-0.0018,0.0056,0.0048,
24.3250,0.0238,0.0104,0.0209,-0.0018,0.0056,0.0048,
24.3260,0.0238,0.0104,0.0209,-0.0042,0.0113,0.0052,
24.3280,-0.0133,-0.0090,0.0170,-0.0042,0.0113,0.0052,
24.3810,-0.0133,-0.0090,0.0170,-0.0042,0.0113,0.0052,
24.3830,-0.0133,-0.0090,0.0170,-0.0042,0.0113,0.0052,
24.3840,-0.0133,-0.0090,0.0170,-0.0042,0.0113,0.0052,
24.3850,-0.0133,-0.0090,0.0170,-0.0038,0.0020,0.0023,
24.3870,0.0180,-0.0211,0.0161,-0.0038,0.0020,0.0023,
24.4400,0.0180,-0.0211,0.0161,-0.0038,0.0020,0.0023,
24.4420,0.0180,-0.0211,0.0161,-0.0038,0.0020,0.0023,
24.4430,0.0180,-0.0211,0.0161,-0.0038,0.0020,0.0023,
24.4440,0.0180,-0.0211,0.0161,-0.0014,0.0044,-0.0034,
24.4450,-0.0102,0.0069,0.0046,-0.0014,0.0044,-0.0034,
24.4980,-0.0102,0.0069,0.0046,-0.0014,0.0044,-0.0034,
24.5000,-0.0102,0.0069,0.0046,-0.0014,0.0044,-0.0034,
24.5020,-0.0102,0.0069,0.0046,-0.0014,0.0044,-0.0034,
24.5030,-0.0102,0.0069,0.0046,-0.0009,0.0011,-0.0030,
24.5040,-0.0055,-0.0122,0.0009,-0.0009,0.0011,-0.0030,
24.5560,-0.0055,-0.0122,0.0009,-0.0009,0.0011,-0.0030,
24.5590,-0.0055,-0.0122,0.0009,-0.0009,0.0011,-0.0030,
24.5600,-0.0055,-0.0122,0.0009,-0.0009,0.0011,-0.0030,
24.5610,-0.0055,-0.0122,0.0009,-0.0001,0.0020,-0.0017,
24.5620,-0.0020,0.0083,-0.0049,-0.0001,0.0020,-0.0017,
24.6150,-0.0020,0.0083,-0.0049,-0.0001,0.0020,-0.0017,
24.6170,-0.0020,0.0083,-0.0049,-0.0001,0.0020,-0.0017,
24.6190,-0.0020,0.0083,-0.0049,-0.0001,0.0020,-0.0017,
24.6200,-0.0020,0.0083,-0.0049,-0.0026,-0.0050,-0.0025,
24.6210,0.0069,-0.0075,0.0019,-0.0026,-0.0050,-0.0025,
24.6730,0.0069,-0.0075,0.0019,-0.0026,-0.0050,-0.0025,
24.6740,0.0069,-0.0075,0.0019,-0.0026,-0.0050,-0.0025,
24.6760,0.0069,-0.0075,0.0019,-0.0026,-0.0050,-0.0025,
24.6770,0.0069,-0.0075,0.0019,-0.0005,-0.0042,-0.0017,
24.6780,0.0307,0.0055,-0.0009,-0.0005,-0.0042,-0.0017,
24.7310,0.0307,0.0055,-0.0009,-0.0005,-0.0042,-0.0017,
24.7320,0.0307,0.0055,-0.0009,-0.0005,-0.0042,-0.0017,
24.7320,0.0307,0.0055,-0.0009,-0.0005,-0.0042,-0.0017,
24.7330,0.0307,0.0055,-0.0009,-0.0005,0.0028,-0.0030,
24.7350,0.0187,-0.0028,0.0033,-0.0005,0.0028,-0.0030,
24.7890,0.0187,-0.0028,0.0033,-0.0005,0.0028,-0.0030,
24.7900,0.0187,-0.0028,0.0033,-0.0005,0.0028,-0.0030,
24.7900,0.0187,-0.0028,0.0033,-0.0005,0.0028,-0.0030,
24.7910,0.0187,-0.0028,0.0033,0.0015,0.0032,-0.0034,
24.7910,0.0110,0.0084,-0.0103,0.0015,0.0032,-0.0034,
24.8480,0.0110,0.0084,-0.0103,0.0015,0.0032,-0.0034,
24.8490,0.0110,0.0084,-0.0103,0.0015,0.0032,-0.0034,
24.8500,0.0110,0.0084,-0.0103,0.0015,0.0032,-0.0034,
24.8500,0.0110,0.0084,-0.0103,-0.0018,0.0056,-0.0042,
24.8510,0.0109,0.0089,0.0065,-0.0018,0.0056,-0.0042,
24.9070,0.0109,0.0089,0.0065,-0.0018,0.0056,-0.0042,
24.9090,0.0109,0.0089,0.0065,-0.0018,0.0056,-0.0042,
24.9110,0.0109,0.0089,0.0065,-0.0018,0.0056,-0.0042,
24.9120,0.0109,0.0089,0.0065,0.0003,0.0064,-0.0042,
24.9130,-0.0127,-0.0003,0.0105,0.0003,0.0064,-0.0042,
24.9660,-0.0127,-0.0003,0.0105,0.0003,0.0064,-0.0042,
24.9680,-0.0127,-0.0003,0.0105,0.0003,0.0064,-0.0042,
24.9690,-0.0127,-0.0003,0.0105,0.0003,0.0064,-0.0042,
24.9700,-0.0127,-0.0003,0.0105,0.0015,0.0024,-0.0025,
24.9720,0.0034,0.0127,-0.0146,0.0015,0.0024,-0.0025,
25.0250,0.0034,0.0127,-0.0146,0.0015,0.0024,-0.0025,
25.0270,0.0034,0.0127,-0.0146,0.0015,0.0024,-0.0025,
25.0280,0.0034,0.0127,-0.0146,0.0015,0.0024,-0.0025,
25.0290,0.0034,0.0127,-0.0146,-0.0014,-0.0042,-0.0017,
25.0300,0.0226,0.0191,-0.0033,-0.0014,-0.0042,-0.0017,
25.0830,0.0226,0.0191,-0.0033,-0.0014,-0.0042,-0.0017,
25.0860,0.0226,0.0191,-0.0033,-0.0014,-0.0042,-0.0017,
25.0870,0.0226,0.0191,-0.0033,-0.0014,-0.0042,-0.0017,
25.0880,0.0226,0.0191,-0.0033,-0.0022,0.0028,-0.0054,
25.0900,0.0219,-0.0106,0.0117,-0.0022,0.0028,-0.0054,
25.1410,0.0219,-0.0106,0.0117,-0.0022,0.0028,-0.0054,
25.1430,0.0219,-0.0106,0.0117,-0.0022,0.0028,-0.0054,
25.1450,0.0219,-0.0106,0.0117,-0.0022,0.0028,-0.0054,
25.1460,0.0219,-0.0106,0.0117,0.0035,0.0015,-0.0062,
25.1470,-0.0377,0.0202,-0.0295,0.0035,0.0015,-0.0062,
25.2000,-0.0377,0.0202,-0.0295,0.0035,0.0015,-0.0062,
25.2020,-0.0377,0.0202,-0.0295,0.0035,0.0015,-0.0062,
25.2040,-0.0377,0.0202,-0.0295,0.0035,0.0015,-0.0062,
25.2050,-0.0377,0.0202,-0.0295,-0.0005,-0.0123,-0.0054,
25.2060,0.0011,0.0075,0.0105,-0.0005,-0.0123,-0.0054,
25.2580,0.0011,0.0075,0.0105,-0.0005,-0.0123,-0.0054,
25.2600,0.0011,0.0075,0.0105,-0.0005,-0.0123,-0.0054,
25.2630,0.0011,0.0075,0.0105,-0.0005,-0.0123,-0.0054,
25.2640,0.0011,0.0075,0.0105,-0.0046,-0.0115,-0.0050,
25.2650,0.0269,0.0095,-0.0163,-0.0046,-0.0115,-0.0050,
25.3170,0.0269,0.0095,-0.0163,-0.0046,-0.0115,-0.0050,
25.3190,0.0269,0.0095,-0.0163,-0.0046,-0.0115,-0.0050,
25.3200,0.0269,0.0095,-0.0163,-0.0046,-0.0115,-0.0050,
25.3220,0.0269,0.0095,-0.0163,-0.0042,-0.0107,-0.0025,
25.3230,0.0315,-0.0179,0.0034,-0.0042,-0.0107,-0.0025,
25.3760,0.0315,-0.0179,0.0034,-0.0042,-0.0107,-0.0025,
25.3780,0.0315,-0.0179,0.0034,-0.0042,-0.0107,-0.0025,
25.3790,0.0315,-0.0179,0.0034,-0.0042,-0.0107,-0.0025,
25.3800,0.0315,-0.0179,0.0034,-0.0014,-0.0038,-0.0054,
25.3820,0.0196,0.0155,0.0014,-0.0014,-0.0038,-0.0054,
25.4350,0.0196,0.0155,0.0014,-0.0014,-0.0038,-0.0054,
25.4370,0.0196,0.0155,0.0014,-0.0014,-0.0038,-0.0054,
25.4380,0.0196,0.0155,0.0014,-0.0014,-0.0038,-0.0054,
25.4390,0.0196,0.0155,0.0014,-0.0030,-0.0054,-0.0042,
25.4400,0.0156,0.0003,0.0243,-0.0030,-0.0054,-0.0042,
25.4930,0.0156,0.0003,0.0243,-0.0030,-0.0054,-0.0042,
25.4960,0.0156,0.0003,0.0243,-0.0030,-0.0054,-0.0042,
25.4970,0.0156,0.0003,0.0243,-0.0030,-0.0054,-0.0042,
25.4980,0.0156,0.0003,0.0243,0.0027,-0.0058,-0.0030,
25.4990,0.0228,-0.0157,0.0142,0.0027,-0.0058,-0.0030,
25.5520,0.0228,-0.0157,0.0142,0.0027,-0.0058,-0.0030,
25.5540,0.0228,-0.0157,0.0142,0.0027,-0.0058,-0.0030,
25.5550,0.0228,-0.0157,0.0142,0.0027,-0.0058,-0.0030,
25.5560,-0.0033,0.0036,-0.0004,0.0027,-0.0058,-0.0030,
25.5580,-0.0033,0.0036,-0.0004,0.0080,-0.0001,-0.0025,
25.6100,-0.0033,0.0036,-0.0004,0.0080,-0.0001,-0.0025,
25.6120,-0.0033,0.0036,-0.0004,0.0080,-0.0001,-0.0025,
25.6140,-0.0033,0.0036,-0.0004,0.0080,-0.0001,-0.0025,
25.6150,-0.0033,0.0036,-0.0004,0.0068,-0.0021,-0.0009,
25.6160,0.0296,-0.0041,0.0243,0.0068,-0.0021,-0.0009,
25.6690,0.0296,-0.0041,0.0243,0.0068,-0.0021,-0.0009,
25.6710,0.0296,-0.0041,0.0243,0.0068,-0.0021,-0.0009,
25.6730,0.0296,-0.0041,0.0243,0.0068,-0.0021,-0.0009,
25.6740,-0.0007,0.0139,0.0372,0.0068,-0.0021,-0.0009,
25.6750,-0.0007,0.0139,0.0372,0.0084,0.0003,-0.0013,
25.7280,-0.0007,0.0139,0.0372,0.0084,0.0003,-0.0013,
25.7300,-0.0007,0.0139,0.0372,0.0084,0.0003,-0.0013,
25.7310,-0.0007,0.0139,0.0372,0.0084,0.0003,-0.0013,
25.7330,0.0136,0.0021,0.0399,0.0084,0.0003,-0.0013,
25.7350,0.0136,0.0021,0.0399,0.0064,0.0003,-0.0001,
25.7510,0.0136,0.0021,0.0399,0.0064,0.0003,-0.0001,
25.8050,0.0136,0.0021,0.0399,0.0064,0.0003,-0.0001,
25.8080,0.0136,0.0021,0.0399,0.0064,0.0003,-0.0001,
25.8110,0.0136,0.0021,0.0399,0.0064,0.0003,-0.0001,
25.8130,0.0136,0.0021,0.0399,0.0072,0.0064,0.0007,
25.8140,-0.0049,0.0022,0.0224,0.0072,0.0064,0.0007,
25.8650,-0.0049,0.0022,0.0224,0.0072,0.0064,0.0007,
25.8670,-0.0049,0.0022,0.0224,0.0072,0.0064,0.0007,
25.8680,-0.0049,0.0022,0.0224,0.0072,0.0064,0.0007,
25.8700,-0.0141,0.0079,0.0240,0.0072,0.0064,0.0007,
25.8710,-0.0141,0.0079,0.0240,0.0060,0.0068,0.0015,
25.9230,-0.0141,0.0079,0.0240,0.0060,0.0068,0.0015,
25.9250,-0.0141,0.0079,0.0240,0.0060,0.0068,0.0015,
25.9270,-0.0141,0.0079,0.0240,0.0060,0.0068,0.0015,
25.9280,-0.0141,0.0079,0.0240,0.0031,0.0048,0.0023,
25.9290,0.0030,-0.0142,0.0281,0.0031,0.0048,0.0023,
25.9820,0.0030,-0.0142,0.0281,0.0031,0.0048,0.0023,
25.9830,0.0030,-0.0142,0.0281,0.0031,0.0048,0.0023,
25.9840,0.0030,-0.0142,0.0281,0.0031,0.0048,0.0023,
25.9840,0.0006,0.0060,-0.0146,0.0031,0.0048,0.0023,
25.9850,0.0006,0.0060,-0.0146,0.0068,0.0048,0.0036,
26.0400,0.0006,0.0060,-0.0146,0.0068,0.0048,0.0036,
26.0420,0.0006,0.0060,-0.0146,0.0068,0.0048,0.0036,
26.0430,0.0006,0.0060,-0.0146,0.0068,0.0048,0.0036,
26.0450,0.0006,0.0060,-0.0146,0.0076,0.0089,0.0015,
26.0480,0.0255,-0.0127,-0.0037,0.0076,0.0089,0.0015,
26.0980,0.0255,-0.0127,-0.0037,0.0076,0.0089,0.0015,
26.1000,0.0255,-0.0127,-0.0037,0.0076,0.0089,0.0015,
26.1020,0.0255,-0.0127,-0.0037,0.0076,0.0089,0.0015,
26.1030,0.0255,-0.0127,-0.0037,0.0117,0.0166,-0.0017,
26.1040,-0.0199,-0.0063,0.0127,0.0117,0.0166,-0.0017,
26.1590,-0.0199,-0.0063,0.0127,0.0117,0.0166,-0.0017,
26.1610,-0.0199,-0.0063,0.0127,0.0117,0.0166,-0.0017,
26.1620,-0.0199,-0.0063,0.0127,0.0117,0.0166,-0.0017,
26.1630,-0.0199,-0.0063,0.0127,0.0161,0.0174,-0.0034,
26.1650,0.0085,-0.0158,-0.0017,0.0161,0.0174,-0.0034,
26.2160,0.0085,-0.0158,-0.0017,0.0161,0.0174,-0.0034,
26.2180,0.0085,-0.0158,-0.0017,0.0161,0.0174,-0.0034,
26.2190,0.0085,-0.0158,-0.0017,0.0161,0.0174,-0.0034,
26.2200,0.0085,-0.0158,-0.0017,0.0178,0.0284,-0.0070,
26.2220,-0.0154,-0.0014,0.0245,0.0178,0.0284,-0.0070,
26.2740,-0.0154,-0.0014,0.0245,0.0178,0.0284,-0.0070,
26.2760,-0.0154,-0.0014,0.0245,0.0178,0.0284,-0.0070,
26.2780,-0.0154,-0.0014,0.0245,0.0178,0.0284,-0.0070,
26.2790,-0.0154,-0.0014,0.0245,0.0190,0.0203,-0.0058,
26.2800,0.0016,0.0194,0.0118,0.0190,0.0203,-0.0058,
26.3330,0.0016,0.0194,0.0118,0.0190,0.0203,-0.0058,
26.3350,0.0016,0.0194,0.0118,0.0190,0.0203,-0.0058,
26.3370,0.0016,0.0194,0.0118,0.0190,0.0203,-0.0058,
26.3380,-0.0477,-0.0324,-0.0108,0.0190,0.0203,-0.0058,
26.3390,-0.0477,-0.0324,-0.0108,0.0178,0.0178,-0.0074,
26.3910,-0.0477,-0.0324,-0.0108,0.0178,0.0178,-0.0074,
